// Start Time: Unknown
// Update Rate: 100.0Hz
// Filter Profile: human (46.1)
// Firmware Version: 4.3.5
PacketCounter	SampleTimeFine	Acc_X	Acc_Y	Acc_Z	FreeAcc_X	FreeAcc_Y	FreeAcc_Z	OriInc_q0	OriInc_q1	OriInc_q2	OriInc_q3
50181	NaN	5.544976	0.342833	8.138834	0.000000	-0.000000	0.041495	1.000000	-0.000010	0.000031	0.000037
50182	NaN	5.501099	0.373977	8.129699	0.000000	0.000000	0.010447	1.000000	-0.000015	0.000040	0.000047
50183	NaN	5.506469	0.340585	8.119974	-0.013278	-0.012375	0.004178	1.000000	-0.000034	0.000029	0.000048
50184	NaN	5.505746	0.274097	8.153338	-0.060619	-0.062474	0.028945	1.000000	-0.000042	0.000032	0.000041
50185	NaN	5.505473	0.338397	8.120741	-0.013389	-0.012377	0.004178	1.000000	-0.000031	0.000036	0.000048
50186	NaN	5.508787	0.330669	8.144357	-0.025503	-0.014289	0.025288	1.000000	-0.000048	0.000033	0.000050
50187	NaN	5.460902	0.302295	8.144957	-0.072463	-0.019129	-0.002104	1.000000	-0.000051	0.000026	0.000050
50188	NaN	5.478084	0.314247	8.171854	-0.067056	-0.008260	0.030218	1.000000	-0.000046	0.000041	0.000051
50189	NaN	5.463658	0.293095	8.168986	-0.084508	-0.021022	0.019007	1.000000	-0.000048	0.000033	0.000050
50190	NaN	5.447315	0.297947	8.199369	-0.108551	-0.002220	0.035148	1.000000	-0.000044	0.000025	0.000041
50191	NaN	5.456946	0.323058	8.179777	-0.078735	0.012505	0.025251	1.000000	-0.000051	0.000026	0.000050
50192	NaN	5.474235	0.334998	8.206612	-0.073326	0.023373	0.057573	1.000000	-0.000051	0.000027	0.000042
50193	NaN	5.472024	0.314338	8.150390	-0.054402	-0.006291	0.009111	1.000000	-0.000051	0.000027	0.000042
50194	NaN	5.501094	0.261341	8.156897	-0.060177	-0.062411	0.028948	1.000000	-0.000054	0.000020	0.000041
50195	NaN	5.526642	0.280467	8.107273	-0.006115	-0.066453	0.002905	1.000000	-0.000034	0.000030	0.000040
50196	NaN	5.510495	0.285432	8.137517	-0.030157	-0.047652	0.019049	1.000000	-0.000051	0.000003	0.000039
50197	NaN	5.526137	0.278253	8.107694	-0.005703	-0.066271	0.002907	1.000000	-0.000035	0.000031	0.000032
50198	NaN	5.543633	0.290570	8.134384	-0.000290	-0.055402	0.035228	1.000000	-0.000028	-0.000004	0.000043
50199	NaN	5.519876	0.308904	8.118194	0.000298	-0.032461	0.009149	1.000000	-0.000036	0.000032	0.000024
50200	NaN	5.513577	0.340374	8.128698	0.005891	0.001033	0.015389	1.000000	-0.000044	0.000025	0.000041
50201	NaN	5.513241	0.339130	8.128977	0.006279	0.001379	0.015388	1.000000	-0.000054	0.000020	0.000041
50202	NaN	5.502842	0.311291	8.149138	-0.023354	-0.013313	0.025295	1.000000	-0.000057	0.000027	0.000059
50203	NaN	5.532041	0.323486	8.122890	0.018605	-0.018986	0.020357	1.000000	-0.000050	0.000049	0.000060
50204	NaN	5.568848	0.322485	8.143066	0.035952	-0.028827	0.057645	1.000000	-0.000065	0.000030	0.000052
50205	NaN	5.568544	0.275551	8.053558	0.061389	-0.089688	-0.018169	1.000000	-0.000078	0.000042	0.000055
50206	NaN	5.589360	0.280147	8.103841	0.054698	-0.080723	0.035264	1.000000	-0.000081	0.000048	0.000080
50207	NaN	5.604467	0.272070	8.074432	0.078852	-0.098884	0.019125	1.000000	-0.000073	0.000056	0.000056
50208	NaN	5.560476	0.302033	8.065501	0.067097	-0.055552	-0.011931	1.000000	-0.000084	0.000042	0.000072
50209	NaN	5.547698	0.299222	8.119268	0.030831	-0.037802	0.025332	1.000000	-0.000098	0.000046	0.000074
50210	NaN	5.530945	0.302838	8.149959	0.006793	-0.018996	0.041474	1.000000	-0.000101	0.000062	0.000076
50211	NaN	5.512465	0.287130	8.124027	0.001194	-0.028981	0.009160	1.000000	-0.000108	0.000041	0.000074
50212	NaN	5.529352	0.297667	8.151231	0.006610	-0.018099	0.041476	1.000000	-0.000108	0.000063	0.000085
50213	NaN	5.508393	0.241909	8.191445	-0.052822	-0.046559	0.061305	1.000000	-0.000122	0.000033	0.000108
50214	NaN	5.505949	0.219755	8.135382	-0.034199	-0.076253	0.012852	1.000000	-0.000110	0.000056	0.000084
50215	NaN	5.505140	0.217299	8.135995	-0.034229	-0.075190	0.012860	1.000000	-0.000081	0.000048	0.000080
50216	NaN	5.514042	0.176196	8.149448	-0.051931	-0.110587	0.027754	1.000000	-0.000070	0.000038	0.000061
50217	NaN	5.527399	0.194353	8.153260	-0.034275	-0.096501	0.038966	1.000000	-0.000048	0.000032	0.000058
50218	NaN	5.533362	0.226115	8.110599	0.007465	-0.079919	0.007934	1.000000	-0.000035	0.000021	0.000055
50219	NaN	5.473323	0.197586	8.164106	-0.075499	-0.066371	0.017818	1.000000	-0.000037	0.000024	0.000032
50220	NaN	5.481747	0.314364	8.145280	-0.005047	0.029996	0.010399	1.000000	-0.000020	0.000015	0.000061
50221	NaN	5.449527	0.325483	8.205609	-0.052867	0.069077	0.042653	1.000000	-0.000035	0.000031	0.000032
50222	NaN	5.437275	0.278884	8.169028	-0.063879	0.024675	0.004138	1.000000	-0.000038	0.000014	0.000047
50223	NaN	5.439383	0.362405	8.193168	-0.034646	0.105635	0.027733	1.000000	-0.000035	0.000021	0.000055
50224	NaN	5.474713	0.342211	8.156564	0.001322	0.066108	0.016593	1.000000	-0.000067	0.000022	0.000059
50225	NaN	5.499910	0.295236	8.139714	0.008093	0.012700	0.015379	1.000000	-0.000077	0.000016	0.000060
50226	NaN	5.495775	0.299932	8.116857	0.020198	0.014587	-0.005739	1.000000	-0.000068	0.000035	0.000085
50227	NaN	5.532730	0.298148	8.136990	0.037917	0.005481	0.031556	1.000000	-0.000098	0.000023	0.000063
50228	NaN	5.478938	0.301537	8.147654	-0.003473	0.034100	0.010387	1.000000	-0.000083	0.000040	0.000079
50229	NaN	5.497892	0.286362	8.141394	0.008704	0.013930	0.015377	1.000000	-0.000110	0.000056	0.000085
50230	NaN	5.473700	0.302972	8.125670	0.008876	0.036519	-0.010734	1.000000	-0.000103	0.000043	0.000106
50231	NaN	5.464537	0.292848	8.202631	-0.039120	0.052022	0.047629	1.000000	-0.000113	0.000050	0.000076
50232	NaN	5.459275	0.231285	8.212673	-0.074346	0.003841	0.051370	1.000000	-0.000102	0.000053	0.000091
50233	NaN	5.451036	0.242005	8.166906	-0.049759	0.007928	0.009134	1.000000	-0.000104	0.000046	0.000091
50234	NaN	5.464288	0.259043	8.170919	-0.032233	0.020726	0.020318	1.000000	-0.000104	0.000046	0.000091
50235	NaN	5.496384	0.197807	8.200690	-0.049573	-0.037000	0.061362	1.000000	-0.000103	0.000054	0.000083
50236	NaN	5.493911	0.176384	8.144570	-0.030967	-0.066740	0.012932	1.000000	-0.000083	0.000040	0.000079
50237	NaN	5.537136	0.207754	8.121992	0.028635	-0.059596	0.019170	1.000000	-0.000066	0.000043	0.000078
50238	NaN	5.579654	0.173612	8.131887	0.040399	-0.102888	0.050277	1.000000	-0.000071	0.000029	0.000077
50239	NaN	5.579929	0.237470	8.099786	0.088168	-0.052280	0.025404	1.000000	-0.000053	0.000042	0.000060
50240	NaN	5.579290	0.235805	8.100275	0.088168	-0.052279	0.025404	1.000000	-0.000059	0.000041	0.000077
50241	NaN	5.555316	0.253314	8.084420	0.088479	-0.029040	-0.000711	1.000000	-0.000087	0.000035	0.000063
50242	NaN	5.611726	0.238738	8.097871	0.117775	-0.059529	0.041579	1.000000	-0.000073	0.000046	0.000079
50243	NaN	5.577451	0.229564	8.101721	0.088197	-0.050924	0.025410	1.000000	-0.000093	0.000036	0.000072
50244	NaN	5.610427	0.234250	8.098902	0.117660	-0.058828	0.041585	1.000000	-0.000089	0.000051	0.000073
50245	NaN	5.567769	0.172789	8.088923	0.064639	-0.096499	0.008061	1.000000	-0.000090	0.000041	0.000089
50246	NaN	5.561375	0.202987	8.099834	0.070235	-0.062994	0.014240	1.000000	-0.000082	0.000050	0.000064
50247	NaN	5.546803	0.181122	8.096767	0.052149	-0.074886	0.003072	1.000000	-0.000088	0.000026	0.000078
50248	NaN	5.524645	0.217413	8.137569	0.033711	-0.022548	0.025369	1.000000	-0.000077	0.000041	0.000063
50249	NaN	5.527702	0.208695	8.161214	0.020940	-0.023448	0.046494	1.000000	-0.000077	0.000041	0.000063
50250	NaN	5.493409	0.199799	8.165017	-0.008522	-0.015545	0.030313	1.000000	-0.000077	0.000041	0.000063
50251	NaN	5.457134	0.216563	8.202371	-0.045039	0.024930	0.041421	1.000000	-0.000077	0.000041	0.000063
50252	NaN	5.477173	0.267548	8.163583	0.014219	0.054274	0.021536	1.000000	-0.000068	0.000036	0.000077
50253	NaN	5.426832	0.264437	8.197453	-0.039666	0.081724	0.021458	1.000000	-0.000097	0.000054	0.000067
50254	NaN	5.445847	0.249537	8.191088	-0.027739	0.061024	0.026466	1.000000	-0.000071	0.000029	0.000077
50255	NaN	5.445291	0.247398	8.191522	-0.028123	0.061547	0.026462	1.000000	-0.000091	0.000044	0.000073
50256	NaN	5.421366	0.264721	8.175692	-0.027950	0.084119	0.000333	1.000000	-0.000086	0.000034	0.000071
50257	NaN	5.424576	0.255579	8.199227	-0.040392	0.082576	0.021448	1.000000	-0.000094	0.000027	0.000087
50258	NaN	5.409158	0.324737	8.197333	-0.017096	0.151459	0.012662	1.000000	-0.000100	0.000037	0.000081
50259	NaN	5.393565	0.236845	8.226491	-0.082190	0.088676	0.026376	1.000000	-0.000103	0.000031	0.000073
50260	NaN	5.423163	0.247935	8.200396	-0.040634	0.082644	0.021446	1.000000	-0.000111	0.000024	0.000089
50261	NaN	5.412338	0.218789	8.220347	-0.070192	0.067874	0.031389	1.000000	-0.000100	0.000037	0.000081
50262	NaN	5.432628	0.269216	8.181591	-0.010929	0.097214	0.011507	1.000000	-0.000105	0.000023	0.000080
50263	NaN	5.439520	0.252798	8.228253	-0.035291	0.093259	0.053745	1.000000	-0.000116	0.000033	0.000091
50264	NaN	5.412972	0.185007	8.187811	-0.063844	0.036016	0.004103	1.000000	-0.000119	0.000026	0.000090
50265	NaN	5.401397	0.246988	8.209080	-0.052515	0.102718	0.016442	1.000000	-0.000111	0.000024	0.000089
50266	NaN	5.420679	0.231462	8.202520	-0.040595	0.082019	0.021452	1.000000	-0.000112	0.000025	0.000081
50267	NaN	5.390301	0.215042	8.229228	-0.082082	0.087610	0.026386	1.000000	-0.000104	0.000022	0.000088
50268	NaN	5.400374	0.238821	8.209995	-0.052457	0.102283	0.016447	1.000000	-0.000111	0.000024	0.000089
50269	NaN	5.414681	0.164333	8.212528	-0.075485	0.032902	0.025229	1.000000	-0.000115	0.000041	0.000084
50270	NaN	5.463794	0.162510	8.179680	-0.022008	0.006164	0.025305	1.000000	-0.000109	0.000031	0.000090
50271	NaN	5.499011	0.141403	8.143092	0.014392	-0.033898	0.014199	1.000000	-0.000092	0.000022	0.000054
50272	NaN	5.571531	0.120608	8.126393	0.067690	-0.083211	0.040397	1.000000	-0.000079	0.000032	0.000070
50273	NaN	5.563779	0.132443	8.080488	0.092141	-0.079871	-0.001847	1.000000	-0.000072	0.000031	0.000061
50274	NaN	5.625811	0.085410	8.083315	0.115804	-0.143851	0.034288	1.000000	-0.000065	0.000029	0.000060
50275	NaN	5.649832	0.130120	8.067831	0.162978	-0.116611	0.035524	1.000000	-0.000042	0.000032	0.000041
50276	NaN	5.635310	0.109242	8.064518	0.145438	-0.129400	0.024345	1.000000	-0.000051	0.000026	0.000050
50277	NaN	5.665099	0.121670	8.038364	0.186849	-0.135440	0.019412	1.000000	-0.000049	0.000010	0.000040
50278	NaN	5.615112	0.119606	8.071841	0.133355	-0.108680	0.019342	1.000000	-0.000045	0.000027	0.000025
50279	NaN	5.623239	0.170455	8.086339	0.155955	-0.062241	0.036706	1.000000	-0.000043	0.000023	0.000056
50280	NaN	5.575125	0.142840	8.086172	0.108959	-0.067119	0.009340	1.000000	-0.000037	0.000023	0.000040
50281	NaN	5.647684	0.122970	8.069446	0.161902	-0.116247	0.035546	1.000000	-0.000044	0.000025	0.000041
50282	NaN	5.577983	0.133616	8.109865	0.096483	-0.068779	0.030463	1.000000	-0.000043	0.000024	0.000049
50283	NaN	5.577580	0.132486	8.110160	0.095977	-0.068517	0.030470	1.000000	-0.000045	0.000027	0.000025
50284	NaN	5.603653	0.152156	8.060973	0.149639	-0.072687	0.004424	1.000000	-0.000037	0.000024	0.000032
50285	NaN	5.589172	0.131568	8.057598	0.131034	-0.085114	-0.006739	1.000000	-0.000045	0.000027	0.000025
50286	NaN	5.574553	0.155077	8.144656	0.088368	-0.036488	0.057772	1.000000	-0.000035	0.000008	0.000021
50287	NaN	5.536988	0.154350	8.124934	0.070267	-0.026290	0.020470	1.000000	-0.000038	0.000025	0.000024
50288	NaN	5.472892	0.133045	8.154709	-0.000757	-0.012327	0.009195	1.000000	-0.000026	0.000013	0.000021
50289	NaN	5.451069	0.170679	8.195494	-0.019924	0.040473	0.031467	1.000000	-0.000023	0.000021	0.000022
50290	NaN	5.413412	0.170339	8.175819	-0.037269	0.050254	-0.005846	1.000000	-0.000006	0.000024	0.000020
50291	NaN	5.430662	0.182665	8.202926	-0.032328	0.061519	0.026449	1.000000	-0.000003	0.000030	0.000028
50292	NaN	5.405196	0.227631	8.220600	-0.038653	0.115742	0.027604	1.000000	-0.000005	0.000009	0.000002
50293	NaN	5.410656	0.195040	8.210081	-0.044774	0.082519	0.021430	1.000000	-0.000006	-0.000000	0.000017
50294	NaN	5.458099	0.221281	8.210791	0.002190	0.087418	0.048816	1.000000	-0.000004	0.000042	-0.000003
50295	NaN	5.461011	0.261430	8.145347	0.055503	0.105928	-0.003337	1.000000	-0.000021	0.000005	0.000011
50296	NaN	5.473571	0.214536	8.181162	0.025653	0.068714	0.032720	1.000000	-0.000033	0.000016	0.000022
50297	NaN	5.487427	0.233419	8.185023	0.042704	0.081606	0.043907	1.000000	-0.000026	0.000013	0.000021
50298	NaN	5.459056	0.193537	8.177796	0.007645	0.056025	0.021533	1.000000	-0.000025	0.000012	0.000029
50299	NaN	5.481974	0.173025	8.194249	0.006778	0.033376	0.047664	1.000000	-0.000019	0.000025	0.000046
50300	NaN	5.488488	0.205898	8.151958	0.048535	0.049903	0.016630	1.000000	-0.000025	0.000024	-0.000002
50301	NaN	5.469048	0.126803	8.157387	-0.005054	-0.011169	0.009195	1.000000	-0.000031	0.000023	0.000023
50302	NaN	5.461459	0.184018	8.201777	-0.005977	0.053994	0.042646	1.000000	-0.000015	-0.000007	0.000025
50303	NaN	5.466897	0.151220	8.191259	-0.012089	0.020486	0.036475	1.000000	-0.000009	0.000018	0.000011
50304	NaN	5.484075	0.211053	8.129430	0.059314	0.051666	-0.004473	1.000000	0.000006	0.000012	0.000017
50305	NaN	5.480599	0.170561	8.195220	0.005099	0.033203	0.047666	1.000000	0.000003	0.000006	0.000008
50306	NaN	5.481924	0.236245	8.163295	0.052468	0.083232	0.022810	1.000000	-0.000014	0.000003	0.000010
50307	NaN	5.487295	0.203431	8.152824	0.046675	0.049548	0.016641	1.000000	-0.000027	0.000016	0.000005
50308	NaN	5.501051	0.222547	8.156761	0.064190	0.062356	0.027832	1.000000	-0.000014	0.000026	0.000021
50309	NaN	5.506291	0.189482	8.146381	0.058370	0.028782	0.021662	1.000000	-0.000024	0.000010	0.000045
50310	NaN	5.536103	0.202344	8.120301	0.099927	0.022737	0.016767	1.000000	-0.000046	0.000029	0.000009
50311	NaN	5.534236	0.135698	8.152587	0.052024	-0.027609	0.041621	1.000000	-0.000020	0.000027	0.000030
50312	NaN	5.540851	0.168531	8.110268	0.093794	-0.011084	0.010599	1.000000	-0.000026	0.000013	0.000021
50313	NaN	5.555178	0.096193	8.112414	0.070073	-0.080039	0.019363	1.000000	-0.000024	0.000022	0.000014
50314	NaN	5.533300	0.134073	8.153250	0.051640	-0.027669	0.041623	1.000000	-0.000010	0.000019	0.000004
50315	NaN	5.540035	0.167340	8.110850	0.092773	-0.011290	0.010609	1.000000	-0.000004	0.000007	0.000018
50316	NaN	5.509686	0.153420	8.137303	0.051204	-0.005216	0.015498	1.000000	-0.000011	0.000020	-0.000004
50317	NaN	5.546789	0.153288	8.157378	0.067851	-0.015155	0.052826	1.000000	0.000018	0.000002	0.000006
50318	NaN	5.519793	0.180070	8.118165	0.080192	0.009287	0.005593	1.000000	-0.000008	0.000027	-0.000004
50319	NaN	5.537104	0.192620	8.145250	0.085065	0.020232	0.037900	1.000000	-0.000003	0.000017	0.000002
50320	NaN	5.519213	0.179944	8.118562	0.079668	0.009314	0.005597	1.000000	-0.000006	0.000011	-0.000006
50321	NaN	5.552574	0.186601	8.115633	0.108629	0.001315	0.021823	1.000000	-0.000005	0.000032	0.000013
50322	NaN	5.538077	0.166769	8.112199	0.091102	-0.011461	0.010624	1.000000	-0.000009	0.000018	0.000011
50323	NaN	5.532205	0.198767	8.123045	0.095996	0.021899	0.016808	1.000000	-0.000032	0.000026	-0.000001
50324	NaN	5.545796	0.218028	8.127114	0.113510	0.034704	0.028008	1.000000	0.000006	0.000036	0.000020
50325	NaN	5.517131	0.178420	8.120011	0.078122	0.008937	0.005610	1.000000	-0.000031	0.000023	0.000023
50326	NaN	5.500786	0.183612	8.150234	0.054075	0.027802	0.021690	1.000000	-0.000026	0.000015	0.000013
50327	NaN	5.520003	0.170342	8.143633	0.065271	0.006850	0.026718	1.000000	-0.000012	0.000034	0.000014
50328	NaN	5.496327	0.189648	8.127732	0.065492	0.029433	0.000592	1.000000	-0.000021	0.000028	0.000022
50329	NaN	5.499434	0.182243	8.151176	0.052525	0.027519	0.021699	1.000000	-0.000015	0.000028	0.000005
50330	NaN	5.484927	0.162312	8.147734	0.035001	0.014739	0.010494	1.000000	-0.000006	0.000023	0.000028
50331	NaN	5.502255	0.174486	8.174819	0.039972	0.025571	0.042802	1.000000	-0.000016	0.000019	0.000020
50332	NaN	5.475174	0.200758	8.135688	0.052338	0.050015	-0.004425	1.000000	-0.000014	0.000026	0.000021
50333	NaN	5.511892	0.200316	8.156047	0.068783	0.040066	0.032913	1.000000	-0.000003	0.000042	-0.000003
50334	NaN	5.488153	0.220000	8.140181	0.069008	0.062650	0.006788	1.000000	0.000003	0.000029	0.000019
50335	NaN	5.477190	0.193003	8.159869	0.038586	0.047891	0.016684	1.000000	-0.000031	0.000023	0.000023
50336	NaN	5.495910	0.270784	8.155114	0.091362	0.108847	0.024184	1.000000	-0.000028	0.000030	0.000023
50337	NaN	5.529578	0.185468	8.150527	0.079010	0.019087	0.037953	1.000000	-0.000036	0.000033	0.000017
50338	NaN	5.500412	0.236863	8.145235	0.084845	0.075174	0.018011	1.000000	-0.000028	0.000029	0.000031
50339	NaN	5.514390	0.164169	8.147561	0.060661	0.006037	0.026748	1.000000	-0.000048	0.000044	0.000027
50340	NaN	5.504595	0.202535	8.135573	0.078401	0.041413	0.011836	1.000000	-0.000038	0.000049	0.000027
50341	NaN	5.513104	0.162006	8.148475	0.059981	0.005905	0.026752	1.000000	-0.000053	0.000019	0.000049
50342	NaN	5.526679	0.180517	8.152604	0.077481	0.018707	0.037966	1.000000	-0.000032	0.000048	0.000018
50343	NaN	5.497768	0.140574	8.145592	0.041509	-0.006965	0.015543	1.000000	-0.000033	0.000038	0.000033
50344	NaN	5.525391	0.178986	8.153511	0.076518	0.018625	0.037974	1.000000	-0.000019	0.000035	0.000023
50345	NaN	5.510731	0.158928	8.150141	0.058864	0.005751	0.026759	1.000000	-0.000011	0.000033	0.000022
50346	NaN	5.490636	0.171349	8.157342	0.046949	0.026479	0.021730	1.000000	-0.000014	0.000027	0.000013
50347	NaN	5.484747	0.203382	8.168233	0.051934	0.059599	0.027922	1.000000	-0.000017	0.000021	0.000005
50348	NaN	5.503947	0.190209	8.161653	0.063826	0.038898	0.032951	1.000000	-0.000003	0.000030	0.000028
50349	NaN	5.480319	0.209830	8.145726	0.062764	0.061144	0.006839	1.000000	0.000002	0.000031	0.000004
50350	NaN	5.502856	0.190003	8.162393	0.062496	0.038578	0.032961	1.000000	-0.000003	0.000042	-0.000002
50351	NaN	5.502242	0.189919	8.162809	0.061708	0.038441	0.032967	1.000000	-0.000005	0.000033	0.000005
50352	NaN	5.521337	0.176985	8.156301	0.073590	0.017738	0.037998	1.000000	0.000003	0.000030	0.000012
50353	NaN	5.540438	0.164155	8.149789	0.084181	-0.003111	0.043040	1.000000	0.000001	0.000032	-0.000004
50354	NaN	5.514848	0.209318	8.167591	0.077857	0.051115	0.044200	1.000000	-0.000008	0.000026	0.000004
50355	NaN	5.496808	0.196531	8.140983	0.071548	0.039935	0.011895	1.000000	-0.000007	0.000025	0.000012
50356	NaN	5.490801	0.228844	8.151946	0.077121	0.073447	0.018088	1.000000	-0.000007	0.000037	-0.000019
50357	NaN	5.513355	0.208868	8.168610	0.075017	0.050670	0.044224	1.000000	-0.000011	0.000033	0.000022
50358	NaN	5.498724	0.189088	8.165199	0.057467	0.037894	0.032994	1.000000	0.000002	0.000031	0.000004
50359	NaN	5.505298	0.222517	8.123063	0.098481	0.054279	0.002063	1.000000	-0.000005	0.000032	0.000013
50360	NaN	5.487056	0.162182	8.185282	0.026924	0.023128	0.042852	1.000000	-0.000013	0.000036	0.000006
50361	NaN	5.511220	0.207985	8.170073	0.073889	0.050264	0.044235	1.000000	-0.000023	0.000032	-0.000001
50362	NaN	5.527246	0.110494	8.138543	0.057033	-0.050226	0.025644	1.000000	-0.000015	0.000028	0.000005
50363	NaN	5.570723	0.235024	8.118315	0.155996	0.037928	0.034620	1.000000	-0.000001	0.000026	-0.000013
50364	NaN	5.576107	0.111380	8.106161	0.109464	-0.077213	0.025874	1.000000	0.000004	0.000039	0.000004
50365	NaN	5.580642	0.170329	8.097821	0.143613	-0.029353	0.022240	1.000000	0.000002	0.000031	0.000004
50366	NaN	5.576638	0.177312	8.075040	0.155734	-0.027477	0.001160	1.000000	0.000002	0.000031	0.000004
50367	NaN	5.574639	0.111555	8.107169	0.107652	-0.077621	0.025891	1.000000	0.000022	0.000018	-0.000000
50368	NaN	5.540207	0.196433	8.112322	0.119082	0.011970	0.012175	1.000000	0.000014	0.000020	0.000001
50369	NaN	5.500584	0.222361	8.126260	0.093968	0.053443	0.002112	1.000000	0.000016	0.000028	-0.000007
50370	NaN	5.477002	0.194962	8.198935	0.027985	0.055795	0.049067	1.000000	0.000011	0.000014	-0.000008
50371	NaN	5.400150	0.221280	8.192792	-0.013896	0.106977	0.001628	1.000000	0.000025	0.000035	-0.000015
50372	NaN	5.431407	0.253825	8.223764	0.008867	0.130692	0.045190	1.000000	0.000014	0.000020	0.000001
50373	NaN	5.427705	0.260901	8.200769	0.019779	0.132481	0.024117	1.000000	0.000003	0.000006	0.000009
50374	NaN	5.441388	0.280472	8.204827	0.037214	0.145276	0.035362	1.000000	0.000007	0.000046	0.000005
50375	NaN	5.430206	0.253791	8.224559	0.006770	0.130381	0.045196	1.000000	-0.000006	0.000024	0.000020
50376	NaN	5.431848	0.228064	8.191077	0.013279	0.098761	0.017917	1.000000	-0.000006	0.000024	0.000020
50377	NaN	5.465198	0.234583	8.188283	0.041267	0.090499	0.034216	1.000000	0.000000	0.000023	0.000011
50378	NaN	5.416989	0.208066	8.187804	-0.005691	0.085670	0.006673	1.000000	-0.000006	0.000024	0.000020
50379	NaN	5.414517	0.233307	8.221847	-0.013511	0.116862	0.033955	1.000000	0.000002	0.000031	0.000004
50380	NaN	5.433739	0.220513	8.215280	-0.001700	0.096158	0.038999	1.000000	0.000015	0.000017	0.000017
50381	NaN	5.413867	0.233269	8.222276	-0.014441	0.116832	0.033954	1.000000	-0.000001	0.000014	0.000018
50382	NaN	5.460057	0.241053	8.166272	0.051130	0.091915	0.013160	1.000000	0.000013	0.000010	0.000016
50383	NaN	5.449283	0.214439	8.185720	0.019607	0.077048	0.022980	1.000000	-0.000004	0.000008	0.000010
50384	NaN	5.482772	0.220985	8.182843	0.048893	0.069121	0.039286	1.000000	0.000001	0.000022	0.000019
50385	NaN	5.482485	0.220778	8.183041	0.048641	0.068856	0.039289	1.000000	-0.000001	0.000014	0.000018
50386	NaN	5.492821	0.247154	8.163898	0.078241	0.083512	0.029482	1.000000	0.000000	0.000023	0.000011
50387	NaN	5.501439	0.207519	8.176674	0.059307	0.047789	0.044345	1.000000	-0.000006	0.000023	0.000028
50388	NaN	5.494028	0.221260	8.130724	0.083610	0.051533	0.002216	1.000000	-0.000006	0.000035	-0.000003
50389	NaN	5.507765	0.240425	8.134777	0.100157	0.063739	0.013491	1.000000	-0.000025	0.000012	0.000029
50390	NaN	5.510821	0.232808	8.158210	0.087856	0.061885	0.034555	1.000000	-0.000027	0.000040	0.000008
50391	NaN	5.552953	0.199737	8.168102	0.097990	0.017915	0.065731	1.000000	-0.000004	0.000031	0.000021
50392	NaN	5.559721	0.232920	8.125915	0.139778	0.034445	0.034876	1.000000	-0.000017	0.000020	0.000013
50393	NaN	5.525637	0.225727	8.129194	0.108799	0.042048	0.018579	1.000000	-0.000013	0.000025	0.000029
50394	NaN	5.509057	0.231050	8.159451	0.084588	0.060905	0.034590	1.000000	-0.000022	0.000029	0.000014
50395	NaN	5.524744	0.224553	8.129833	0.106818	0.041571	0.018603	1.000000	-0.000028	0.000029	0.000031
50396	NaN	5.499569	0.177784	8.145661	0.059517	0.014147	0.017110	1.000000	-0.000024	0.000022	0.000014
50397	NaN	5.504360	0.236042	8.137209	0.093715	0.061990	0.013565	1.000000	-0.000019	0.000025	0.000046
50398	NaN	5.507395	0.228382	8.160648	0.081370	0.060125	0.034622	1.000000	-0.000022	0.000029	0.000014
50399	NaN	5.503478	0.234831	8.137841	0.091953	0.061604	0.013585	1.000000	-0.000021	0.000028	0.000022
50400	NaN	5.536826	0.240939	8.135110	0.121178	0.053672	0.029921	1.000000	-0.000023	0.000021	0.000022
50401	NaN	5.495476	0.200011	8.180870	0.049188	0.044791	0.044415	1.000000	-0.000028	0.000030	0.000023
50402	NaN	5.454043	0.297877	8.139871	0.085012	0.138135	-0.011335	1.000000	-0.000028	0.000029	0.000031
50403	NaN	5.482137	0.244573	8.145912	0.077101	0.081647	0.008561	1.000000	-0.000059	0.000030	0.000035
50404	NaN	5.495683	0.262864	8.150153	0.094425	0.094432	0.019850	1.000000	-0.000047	0.000043	0.000035
50405	NaN	5.509059	0.281057	8.154519	0.111687	0.106761	0.031145	1.000000	-0.000058	0.000052	0.000054
50406	NaN	5.446400	0.233654	8.150374	0.047233	0.089153	-0.007776	1.000000	-0.000073	0.000033	0.000045
50407	NaN	5.454474	0.283869	8.165270	0.068729	0.134873	0.009766	1.000000	-0.000070	0.000039	0.000054
50408	NaN	5.467993	0.301353	8.169579	0.086044	0.147656	0.021059	1.000000	-0.000101	0.000040	0.000066
50409	NaN	5.426323	0.258721	8.215512	0.012311	0.138629	0.035520	1.000000	-0.000099	0.000047	0.000066
50410	NaN	5.454519	0.251731	8.133053	0.072615	0.102840	-0.017493	1.000000	-0.000098	0.000046	0.000074
50411	NaN	5.466155	0.202760	8.169181	0.042306	0.065126	0.018358	1.000000	-0.000116	0.000044	0.000068
50412	NaN	5.533065	0.122284	8.161778	0.059973	-0.032402	0.048334	1.000000	-0.000105	0.000057	0.000060
50413	NaN	5.514623	0.107844	8.135423	0.052967	-0.043626	0.016000	1.000000	-0.000058	0.000052	0.000054
50414	NaN	5.528096	0.125957	8.139755	0.070256	-0.030846	0.027304	1.000000	-0.000060	0.000031	0.000027
50415	NaN	5.533160	0.092239	8.129364	0.063424	-0.064784	0.021066	1.000000	-0.000053	0.000018	0.000049
50416	NaN	5.504302	0.143420	8.124015	0.069185	-0.008685	0.001214	1.000000	-0.000028	0.000029	0.000031
50417	NaN	5.519305	0.180528	8.185171	0.065768	0.033551	0.060857	1.000000	-0.000019	0.000035	0.000023
50418	NaN	5.487144	0.148102	8.154630	0.042901	0.009887	0.017202	1.000000	-0.000017	0.000021	0.000005
50419	NaN	5.525673	0.213350	8.143459	0.106741	0.049573	0.030110	1.000000	-0.000009	0.000040	0.000022
50420	NaN	5.530576	0.180628	8.133157	0.100970	0.016080	0.023861	1.000000	-0.000015	0.000028	0.000005
50421	NaN	5.555123	0.135285	8.116008	0.106906	-0.038338	0.022676	1.000000	0.000012	0.000035	0.000011
50422	NaN	5.623875	0.214635	8.078870	0.212935	-0.004189	0.030931	1.000000	-0.000003	0.000042	-0.000002
50423	NaN	5.591831	0.091261	8.046242	0.149331	-0.109839	-0.015517	1.000000	0.000000	0.000023	0.000011
50424	NaN	5.594689	0.175621	8.071743	0.177767	-0.030075	0.008306	1.000000	0.000025	0.000024	0.000008
50425	NaN	5.597652	0.168963	8.095162	0.162840	-0.032298	0.029383	1.000000	0.000015	0.000031	-0.000022
50426	NaN	5.560085	0.169783	8.075249	0.145562	-0.022465	-0.008029	1.000000	0.000032	0.000020	0.000015
50427	NaN	5.540015	0.274215	8.084359	0.172341	0.079594	-0.010250	1.000000	0.000004	0.000016	-0.000007
50428	NaN	5.498773	0.142830	8.127769	0.059950	-0.010654	0.001273	1.000000	0.000025	0.000024	0.000008
50429	NaN	5.492785	0.266867	8.140781	0.105572	0.103979	0.010360	1.000000	0.000032	0.000020	0.000015
50430	NaN	5.481621	0.240477	8.160308	0.075643	0.089314	0.020060	1.000000	0.000002	0.000031	0.000004
50431	NaN	5.440005	0.200193	8.205953	0.004007	0.080522	0.034388	1.000000	0.000002	0.000031	0.000004
50432	NaN	5.421783	0.279046	8.181389	0.039477	0.151286	0.004862	1.000000	0.000002	0.000031	0.000004
50433	NaN	5.481599	0.167369	8.216155	0.014392	0.036941	0.065550	1.000000	0.000003	0.000030	0.000012
50434	NaN	5.513367	0.247134	8.158735	0.103335	0.080924	0.036476	1.000000	0.000009	0.000030	-0.000005
50435	NaN	5.515150	0.130671	8.123146	0.068236	-0.032838	0.006361	1.000000	0.000017	0.000026	0.000009
50436	NaN	5.534169	0.209455	8.118723	0.120758	0.028091	0.014275	1.000000	0.000023	0.000026	-0.000008
50437	NaN	5.473242	0.091344	8.168959	-0.004363	-0.041680	0.020667	1.000000	0.000046	0.000018	-0.000003
50438	NaN	5.435349	0.275234	8.153162	0.060103	0.131455	-0.011059	1.000000	0.000039	0.000031	-0.000025
50439	NaN	5.441968	0.170679	8.197542	-0.008074	0.045792	0.028130	1.000000	0.000051	0.000008	0.000003
50440	NaN	5.438229	0.269905	8.176571	0.044841	0.129329	0.009978	1.000000	0.000042	0.000014	-0.000019
50441	NaN	5.452168	0.199079	8.178613	0.020085	0.060267	0.018460	1.000000	0.000057	0.000032	-0.000011
50442	NaN	5.504956	0.285116	8.171202	0.101905	0.113236	0.042827	1.000000	0.000035	0.000016	-0.000018
50443	NaN	5.446131	0.141886	8.187686	-0.017366	0.012018	0.021855	1.000000	0.000048	0.000027	-0.000010
50444	NaN	5.484771	0.299856	8.178301	0.087888	0.133848	0.037774	1.000000	0.000063	-0.000001	-0.000016
50445	NaN	5.451121	0.202772	8.179220	0.016763	0.060033	0.018467	1.000000	0.000025	0.000011	-0.000018
50446	NaN	5.461649	0.230231	8.160080	0.046249	0.074687	0.008810	1.000000	0.000059	0.000017	-0.000021
50447	NaN	5.489699	0.270361	8.167926	0.078006	0.100188	0.031538	1.000000	0.000050	0.000010	-0.000013
50448	NaN	5.486335	0.186913	8.142892	0.049134	0.020450	0.007632	1.000000	0.000044	0.000011	-0.000004
50449	NaN	5.482519	0.286131	8.121875	0.101524	0.103316	-0.010455	1.000000	0.000053	0.000018	-0.000012
50450	NaN	5.494509	0.240609	8.157661	0.071080	0.066048	0.025277	1.000000	0.000043	0.000012	-0.000012
50451	NaN	5.469416	0.195470	8.173195	0.021020	0.038271	0.023568	1.000000	0.000050	0.000011	-0.000021
50452	NaN	5.483374	0.216102	8.177142	0.038174	0.051035	0.034935	1.000000	0.000057	0.000009	-0.000022
50453	NaN	5.477701	0.249639	8.187854	0.043687	0.084390	0.041218	1.000000	0.000049	0.000013	-0.000028
50454	NaN	5.438444	0.185405	8.199561	-0.021204	0.044219	0.028117	1.000000	0.000073	0.000015	-0.000039
50455	NaN	5.493537	0.246639	8.158136	0.066893	0.065190	0.025312	1.000000	0.000072	0.000004	-0.000016
50456	NaN	5.532684	0.222346	8.144643	0.090326	0.023734	0.035486	1.000000	0.000071	0.000006	-0.000032
50457	NaN	5.509603	0.243846	8.128262	0.088577	0.046012	0.009424	1.000000	0.000086	0.000002	-0.000034
50458	NaN	5.512967	0.238579	8.151367	0.075974	0.044122	0.030421	1.000000	0.000075	-0.000002	-0.000041
50459	NaN	5.450655	0.285790	8.148464	0.051023	0.107591	-0.005822	1.000000	0.000070	0.000007	-0.000040
50460	NaN	5.453979	0.280223	8.171600	0.038410	0.105696	0.015172	1.000000	0.000051	-0.000003	-0.000039
50461	NaN	5.498288	0.314780	8.149445	0.096207	0.112035	0.022042	1.000000	0.000068	0.000023	-0.000029
50462	NaN	5.514172	0.310297	8.119741	0.120087	0.093199	0.006145	1.000000	0.000058	0.000019	-0.000037
50463	NaN	5.531731	0.232502	8.145007	0.083479	0.021884	0.035550	1.000000	0.000034	0.000006	-0.000003
50464	NaN	5.513767	0.312157	8.119945	0.118965	0.092648	0.006163	1.000000	0.000059	0.000017	-0.000021
50465	NaN	5.541998	0.260941	8.125947	0.111530	0.036377	0.025965	1.000000	0.000035	0.000017	-0.000026
50466	NaN	5.500667	0.221526	8.171467	0.039868	0.027794	0.040074	1.000000	0.000044	0.000010	0.000004
50467	NaN	5.516439	0.307757	8.143478	0.102164	0.090524	0.027202	1.000000	0.000042	0.000014	-0.000019
50468	NaN	5.501991	0.288894	8.139853	0.084425	0.077765	0.015812	1.000000	0.000023	0.000026	-0.000008
50469	NaN	5.457168	0.256271	8.162301	0.025053	0.070860	0.008915	1.000000	0.000036	0.000014	-0.000010
50470	NaN	5.490331	0.355108	8.161334	0.094923	0.144496	0.028417	1.000000	0.000045	0.000021	-0.000019
50471	NaN	5.459836	0.250654	8.185887	0.010159	0.068563	0.029903	1.000000	0.000009	0.000029	0.000003
50472	NaN	5.478796	0.329367	8.181170	0.062594	0.129445	0.038026	1.000000	0.000022	0.000018	-0.000000
50473	NaN	5.446826	0.297537	8.150604	0.037397	0.105244	-0.005735	1.000000	0.000017	0.000027	0.000001
50474	NaN	5.453238	0.283878	8.197129	0.012361	0.101450	0.036215	1.000000	0.000011	0.000014	-0.000008
50475	NaN	5.440655	0.330436	8.161568	0.041582	0.138191	0.000583	1.000000	0.000017	0.000026	0.000009
50476	NaN	5.463343	0.310698	8.178208	0.040735	0.115558	0.026659	1.000000	0.000005	0.000013	0.000009
50477	NaN	5.427031	0.329571	8.215083	0.002240	0.154941	0.037433	1.000000	0.000011	0.000038	-0.000005
50478	NaN	5.448456	0.291352	8.174895	0.020518	0.102614	0.015258	1.000000	0.000003	0.000006	0.000009
50479	NaN	5.456721	0.343330	8.189480	0.040149	0.148335	0.033004	1.000000	0.000012	0.000035	0.000011
50480	NaN	5.478037	0.304997	8.149375	0.058424	0.096009	0.010835	1.000000	0.000000	0.000023	0.000011
50481	NaN	5.475526	0.330193	8.183325	0.050433	0.126872	0.038129	1.000000	-0.000006	0.000023	0.000028
50482	NaN	5.491414	0.323860	8.153723	0.074276	0.108034	0.022277	1.000000	-0.000014	0.000026	0.000021
50483	NaN	5.460505	0.309580	8.180146	0.031362	0.113144	0.026721	1.000000	-0.000033	0.000040	0.000025
50484	NaN	5.426231	0.302262	8.183407	0.001746	0.121098	0.010185	1.000000	-0.000014	0.000026	0.000021
50485	NaN	5.479075	0.295375	8.174191	0.040847	0.091820	0.031844	1.000000	-0.000041	0.000042	0.000026
50486	NaN	5.437979	0.301808	8.131211	0.035982	0.103589	-0.026612	1.000000	-0.000026	0.000038	0.000024
50487	NaN	5.481225	0.286930	8.198208	0.026407	0.089059	0.052815	1.000000	-0.000018	0.000034	0.000031
50488	NaN	5.488130	0.319730	8.156096	0.068168	0.105634	0.022347	1.000000	-0.000028	0.000030	0.000023
50489	NaN	5.543121	0.287326	8.113205	0.116828	0.044788	0.016717	1.000000	-0.000033	0.000040	0.000025
50490	NaN	5.567719	0.241240	8.096339	0.122769	-0.009442	0.015499	1.000000	-0.000028	0.000029	0.000031
50491	NaN	5.600912	0.247103	8.093881	0.149548	-0.018405	0.032082	1.000000	-0.000023	0.000042	0.000040
50492	NaN	5.630634	0.260006	8.068359	0.190781	-0.024454	0.027692	1.000000	-0.000024	0.000045	0.000025
50493	NaN	5.610458	0.271964	8.075479	0.177346	-0.004560	0.022611	1.000000	-0.000044	0.000025	0.000041
50494	NaN	5.565351	0.237559	8.098076	0.117954	-0.011346	0.015556	1.000000	-0.000044	0.000048	0.000052
50495	NaN	5.578836	0.256133	8.102399	0.134217	0.000983	0.027021	1.000000	-0.000018	0.000034	0.000031
50496	NaN	5.547780	0.241743	8.128866	0.092194	0.006972	0.031408	1.000000	-0.000030	0.000046	0.000034
50497	NaN	5.516423	0.318463	8.157229	0.090731	0.094195	0.038993	1.000000	-0.000037	0.000047	0.000043
50498	NaN	5.510461	0.258620	8.166439	0.055063	0.045977	0.042141	1.000000	-0.000025	0.000036	0.000032
50499	NaN	5.497677	0.304248	8.131147	0.084380	0.082826	0.006609	1.000000	-0.000023	0.000044	0.000032
50500	NaN	5.486357	0.276636	8.150824	0.054217	0.068094	0.016097	1.000000	-0.000061	0.000022	0.000042
50501	NaN	5.508776	0.255604	8.167671	0.052003	0.044680	0.042164	1.000000	-0.000030	0.000046	0.000034
50502	NaN	5.487411	0.249086	8.117920	0.059040	0.035747	-0.011178	1.000000	-0.000034	0.000029	0.000048
50503	NaN	5.484714	0.273512	8.152035	0.051751	0.066381	0.016122	1.000000	-0.000033	0.000038	0.000033
50504	NaN	5.467872	0.278555	8.182279	0.027073	0.085115	0.031952	1.000000	-0.000028	0.000029	0.000031
50505	NaN	5.460738	0.291729	8.136337	0.049780	0.088403	-0.009910	1.000000	-0.000025	0.000035	0.000040
50506	NaN	5.461389	0.309284	8.193583	0.030035	0.117967	0.038323	1.000000	-0.000027	0.000028	0.000039
50507	NaN	5.443398	0.295814	8.166945	0.023735	0.106687	0.005924	1.000000	-0.000040	0.000041	0.000034
50508	NaN	5.431803	0.359456	8.188577	0.034280	0.173630	0.018648	1.000000	-0.000046	0.000040	0.000051
50509	NaN	5.425818	0.299325	8.197724	-0.002768	0.124892	0.021751	1.000000	-0.000040	0.000039	0.000042
50510	NaN	5.444849	0.285289	8.191458	0.008682	0.104142	0.026867	1.000000	-0.000050	0.000035	0.000034
50511	NaN	5.424690	0.296912	8.198559	-0.003457	0.124497	0.021756	1.000000	-0.000049	0.000033	0.000050
50512	NaN	5.426371	0.270348	8.165182	0.003062	0.092916	-0.005540	1.000000	-0.000035	0.000030	0.000040
50513	NaN	5.477103	0.288394	8.189783	0.035023	0.095236	0.043482	1.000000	-0.000042	0.000032	0.000041
50514	NaN	5.482073	0.254958	8.179555	0.029119	0.061707	0.037114	1.000000	-0.000035	0.000031	0.000032
50515	NaN	5.481655	0.254080	8.179862	0.027754	0.061326	0.037121	1.000000	-0.000030	0.000022	0.000031
50516	NaN	5.472400	0.292715	8.167672	0.045231	0.096722	0.022571	1.000000	-0.000034	0.000041	0.000017
50517	NaN	5.491475	0.278943	8.161369	0.055016	0.075476	0.027705	1.000000	-0.000045	0.000027	0.000025
50518	NaN	5.485579	0.219087	8.170369	0.019327	0.027224	0.030757	1.000000	-0.000025	0.000035	0.000040
50519	NaN	5.495890	0.336123	8.153463	0.087787	0.123479	0.024680	1.000000	-0.000028	0.000029	0.000031
50520	NaN	5.475837	0.256870	8.158542	0.034735	0.062469	0.016222	1.000000	-0.000036	0.000032	0.000024
50521	NaN	5.519985	0.289112	8.136889	0.093777	0.068222	0.023436	1.000000	-0.000035	0.000031	0.000032
50522	NaN	5.542468	0.268305	8.153653	0.092762	0.045511	0.049479	1.000000	-0.000030	0.000022	0.000031
50523	NaN	5.501733	0.274850	8.110438	0.086718	0.056775	-0.008960	1.000000	-0.000035	0.000030	0.000040
50524	NaN	5.518688	0.286245	8.137870	0.091163	0.067548	0.023465	1.000000	-0.000042	0.000032	0.000041
50525	NaN	5.473351	0.252066	8.160359	0.031209	0.060728	0.016245	1.000000	-0.000046	0.000052	0.000020
50526	NaN	5.463929	0.290593	8.148328	0.048688	0.096121	0.001721	1.000000	-0.000025	0.000035	0.000040
50527	NaN	5.500411	0.289168	8.169123	0.062835	0.085684	0.039289	1.000000	-0.000050	0.000037	0.000027
50528	NaN	5.510665	0.223346	8.148345	0.051423	0.018669	0.026512	1.000000	-0.000030	0.000045	0.000041
50529	NaN	5.506808	0.320779	8.127667	0.104969	0.101489	0.008997	1.000000	-0.000035	0.000031	0.000032
50530	NaN	5.529173	0.208614	8.142450	0.063202	-0.002931	0.031639	1.000000	-0.000036	0.000032	0.000024
50531	NaN	5.494921	0.292534	8.147608	0.071115	0.085941	0.018426	1.000000	-0.000028	0.000029	0.000031
50532	NaN	5.508558	0.219771	8.149867	0.047270	0.016955	0.026536	1.000000	-0.000032	0.000036	0.000049
50533	NaN	5.511173	0.303165	8.175552	0.074884	0.096124	0.050869	1.000000	-0.000032	0.000048	0.000018
50534	NaN	5.482197	0.263373	8.168121	0.039777	0.070524	0.027815	1.000000	-0.000035	0.000031	0.000032
50535	NaN	5.512165	0.276196	8.142637	0.079218	0.064055	0.023592	1.000000	-0.000015	0.000040	0.000039
50536	NaN	5.467884	0.260622	8.221956	0.000296	0.086762	0.064494	1.000000	-0.000033	0.000040	0.000025
50537	NaN	5.491275	0.287646	8.150239	0.065268	0.084163	0.018482	1.000000	-0.000016	0.000041	0.000031
50538	NaN	5.499365	0.247364	8.163172	0.046863	0.048657	0.032973	1.000000	-0.000042	0.000033	0.000033
50539	NaN	5.509657	0.273047	8.144440	0.076309	0.062597	0.023625	1.000000	-0.000013	0.000048	0.000040
50540	NaN	5.483958	0.226303	8.160092	0.028736	0.035020	0.021440	1.000000	-0.000039	0.000026	0.000016
50541	NaN	5.497616	0.244999	8.164422	0.045096	0.047474	0.032987	1.000000	-0.000015	0.000039	0.000047
50542	NaN	5.513374	0.329735	8.137189	0.109646	0.110386	0.020707	1.000000	-0.000032	0.000048	0.000018
50543	NaN	5.496237	0.243421	8.165397	0.042013	0.046806	0.033004	1.000000	-0.000032	0.000037	0.000041
50544	NaN	5.472859	0.353766	8.151504	0.082832	0.151149	0.010482	1.000000	-0.000041	0.000042	0.000026
50545	NaN	5.475251	0.254444	8.173062	0.029351	0.066764	0.027878	1.000000	-0.000028	0.000052	0.000042
50546	NaN	5.471347	0.351775	8.152606	0.082024	0.150399	0.010500	1.000000	-0.000055	0.000046	0.000028
50547	NaN	5.495473	0.213909	8.133719	0.046898	0.014095	0.005712	1.000000	-0.000042	0.000055	0.000052
50548	NaN	5.508942	0.323443	8.140442	0.104398	0.108521	0.020785	1.000000	-0.000063	0.000049	0.000022
50549	NaN	5.533078	0.185361	8.121520	0.069016	-0.027649	0.015989	1.000000	-0.000069	0.000048	0.000046
50550	NaN	5.501852	0.261854	8.150082	0.067580	0.059974	0.023705	1.000000	-0.000020	0.000050	0.000041
50551	NaN	5.504361	0.253757	8.173731	0.053787	0.057664	0.044596	1.000000	-0.000058	0.000039	0.000028
50552	NaN	5.455772	0.226645	8.172867	0.006835	0.052799	0.016338	1.000000	-0.000032	0.000037	0.000041
50553	NaN	5.480389	0.271813	8.158106	0.050889	0.079641	0.018605	1.000000	-0.000018	0.000033	0.000039
50554	NaN	5.452439	0.250299	8.207474	-0.003772	0.083587	0.043650	1.000000	-0.000033	0.000038	0.000033
50555	NaN	5.443308	0.289098	8.195367	0.011866	0.118356	0.029216	1.000000	-0.000014	0.000026	0.000021
50556	NaN	5.403561	0.314356	8.209092	-0.012345	0.159727	0.018936	1.000000	-0.000034	0.000041	0.000017
50557	NaN	5.402932	0.313641	8.209534	-0.012914	0.159417	0.018940	1.000000	-0.000026	0.000037	0.000024
50558	NaN	5.419747	0.325241	8.237086	-0.008641	0.170140	0.051389	1.000000	-0.000025	0.000035	0.000040
50559	NaN	5.441085	0.286053	8.196950	0.007872	0.118150	0.029223	1.000000	-0.000045	0.000026	0.000033
50560	NaN	5.406834	0.278520	8.199949	-0.021777	0.126067	0.012495	1.000000	-0.000035	0.000031	0.000032
50561	NaN	5.456511	0.278364	8.167857	0.030130	0.099222	0.013509	1.000000	-0.000026	0.000036	0.000032
50562	NaN	5.459274	0.270425	8.191310	0.017082	0.097202	0.034375	1.000000	-0.000040	0.000018	0.000023
50563	NaN	5.425080	0.263129	8.194255	-0.012600	0.104739	0.017644	1.000000	-0.000029	0.000031	0.000015
50564	NaN	5.408205	0.268410	8.224387	-0.037467	0.123452	0.033358	1.000000	-0.000014	0.000026	0.000021
50565	NaN	5.435211	0.288401	8.175759	0.013673	0.119044	0.008381	1.000000	-0.000045	0.000027	0.000025
50566	NaN	5.434903	0.287532	8.175994	0.013142	0.118986	0.008382	1.000000	-0.000025	0.000012	0.000029
50567	NaN	5.454220	0.273899	8.169538	0.022897	0.097368	0.013547	1.000000	-0.000031	0.000024	0.000015
50568	NaN	5.512825	0.325679	8.152104	0.098604	0.116758	0.032654	1.000000	-0.000028	0.000029	0.000031
50569	NaN	5.512176	0.233518	8.150147	0.054462	0.034443	0.029028	1.000000	-0.000038	0.000025	0.000024
50570	NaN	5.500005	0.279247	8.114876	0.084486	0.071789	-0.006212	1.000000	-0.000027	0.000028	0.000039
50571	NaN	5.463510	0.297146	8.151700	0.048251	0.110943	0.004330	1.000000	-0.000036	0.000032	0.000024
50572	NaN	5.466144	0.288906	8.175240	0.035154	0.108914	0.025181	1.000000	-0.000057	0.000036	0.000044
50573	NaN	5.467887	0.262361	8.141764	0.040702	0.076669	-0.002111	1.000000	-0.000044	0.000025	0.000041
50574	NaN	5.501193	0.267725	8.139506	0.069253	0.068606	0.014664	1.000000	-0.000040	0.000039	0.000042
50575	NaN	5.509118	0.227154	8.152394	0.049557	0.032583	0.029060	1.000000	-0.000040	0.000041	0.000034
50576	NaN	5.528087	0.213248	8.146178	0.060812	0.011782	0.034221	1.000000	-0.000033	0.000038	0.000033
50577	NaN	5.538548	0.238765	8.127514	0.088601	0.025962	0.025020	1.000000	-0.000050	0.000035	0.000035
50578	NaN	5.574061	0.219052	8.091427	0.124221	-0.013608	0.014505	1.000000	-0.000028	0.000030	0.000023
50579	NaN	5.554027	0.231196	8.098417	0.110264	0.006580	0.009370	1.000000	-0.000038	0.000025	0.000024
50580	NaN	5.551301	0.255550	8.132638	0.102602	0.038011	0.036682	1.000000	-0.000033	0.000038	0.000033
50581	NaN	5.541899	0.203079	8.118274	0.075429	-0.008736	0.018614	1.000000	-0.000011	0.000033	0.000022
50582	NaN	5.522062	0.306706	8.127688	0.103846	0.093577	0.017216	1.000000	-0.000025	0.000035	0.000040
50583	NaN	5.485181	0.233442	8.162173	0.026377	0.051041	0.023952	1.000000	-0.000029	0.000033	0.000008
50584	NaN	5.509924	0.278732	8.147542	0.072934	0.078398	0.026415	1.000000	-0.000025	0.000035	0.000040
50585	NaN	5.455995	0.284315	8.157189	0.030760	0.106785	0.004446	1.000000	-0.000035	0.000031	0.000032
50586	NaN	5.442232	0.282081	8.210458	-0.006795	0.123521	0.040930	1.000000	-0.000027	0.000028	0.000039
50587	NaN	5.435508	0.295494	8.164511	0.015705	0.127093	-0.000710	1.000000	-0.000027	0.000028	0.000039
50588	NaN	5.407457	0.273849	8.213749	-0.039143	0.131115	0.024107	1.000000	-0.000033	0.000038	0.000033
50589	NaN	5.392562	0.253547	8.210151	-0.057062	0.117639	0.012458	1.000000	-0.000030	0.000046	0.000034
50590	NaN	5.389781	0.277966	8.244402	-0.064769	0.149063	0.039761	1.000000	-0.000031	0.000023	0.000023
50591	NaN	5.425534	0.258473	8.208166	-0.031423	0.109124	0.029280	1.000000	-0.000015	0.000015	0.000044
50592	NaN	5.411049	0.238452	8.204282	-0.049294	0.096336	0.017615	1.000000	-0.000016	0.000019	0.000020
50593	NaN	5.424991	0.257345	8.208560	-0.034669	0.108963	0.029271	1.000000	-0.000016	0.000017	0.000028
50594	NaN	5.455368	0.270579	8.183061	0.006381	0.102814	0.025307	1.000000	0.000001	0.000022	0.000019
50595	NaN	5.440941	0.250791	8.179129	-0.013853	0.089380	0.013640	1.000000	-0.000021	0.000004	0.000019
50596	NaN	5.499950	0.302951	8.161671	0.061724	0.108655	0.033047	1.000000	0.000005	0.000013	0.000009
50597	NaN	5.471240	0.263868	8.153693	0.025592	0.082935	0.009699	1.000000	-0.000016	0.000019	0.000020
50598	NaN	5.474022	0.256347	8.177069	0.012343	0.080899	0.030503	1.000000	-0.000007	0.000025	0.000012
50599	NaN	5.450956	0.276094	8.160840	0.010616	0.103207	0.004527	1.000000	-0.000016	0.000019	0.000020
50600	NaN	5.459215	0.236167	8.173398	-0.008156	0.067714	0.018822	1.000000	-0.000012	0.000010	0.000011
50601	NaN	5.459096	0.235950	8.173483	-0.009626	0.067246	0.018824	1.000000	0.000003	0.000005	0.000016
50602	NaN	5.487475	0.274691	8.181706	0.024274	0.092567	0.042210	1.000000	0.000003	0.000006	0.000009
50603	NaN	5.478523	0.222923	8.166937	-0.002315	0.045866	0.024013	1.000000	0.000010	0.000004	0.000007
50604	NaN	5.470022	0.262456	8.154556	0.015200	0.081211	0.009735	1.000000	0.000001	-0.000001	0.000008
50605	NaN	5.484218	0.281806	8.158664	0.032626	0.093368	0.021441	1.000000	0.000003	0.000006	0.000009
50606	NaN	5.456522	0.261042	8.207586	-0.022327	0.097442	0.046128	1.000000	0.000013	0.000010	0.000016
50607	NaN	5.503575	0.268898	8.152163	0.043025	0.071815	0.026641	1.000000	0.000010	0.000004	0.000007
50608	NaN	5.503503	0.269021	8.152207	0.042383	0.071739	0.026645	1.000000	0.000010	0.000005	-0.000000
50609	NaN	5.489198	0.249733	8.148171	0.025041	0.058363	0.014943	1.000000	0.000010	0.000004	0.000007
50610	NaN	5.489067	0.249871	8.148255	0.024402	0.058286	0.014945	1.000000	0.000012	0.000012	0.000000
50611	NaN	5.503098	0.269476	8.152466	0.040193	0.070382	0.026664	1.000000	0.000012	0.000012	0.000000
50612	NaN	5.469133	0.263207	8.155128	0.010547	0.078379	0.009764	1.000000	0.000010	0.000005	-0.000000
50613	NaN	5.506003	0.262944	8.175725	0.025722	0.067644	0.047457	1.000000	0.000041	0.000004	-0.000004
50614	NaN	5.501808	0.252592	8.095701	0.057555	0.040015	-0.021408	1.000000	0.000021	0.000019	-0.000008
50615	NaN	5.533287	0.284576	8.127056	0.077604	0.062730	0.022826	1.000000	0.000015	-0.000005	0.000006
50616	NaN	5.511420	0.322920	8.167590	0.058050	0.114895	0.044948	1.000000	0.000013	0.000011	0.000008
50617	NaN	5.474240	0.323752	8.147180	0.040710	0.124204	0.007271	1.000000	0.000015	0.000018	0.000009
50618	NaN	5.473928	0.323833	8.147387	0.040061	0.124121	0.007274	1.000000	0.000008	0.000021	0.000010
50619	NaN	5.457053	0.329301	8.177453	0.013883	0.142128	0.022871	1.000000	-0.000028	0.000030	0.000023
50620	NaN	5.476198	0.315746	8.171127	0.024976	0.121280	0.028066	1.000000	-0.000014	0.000026	0.000021
50621	NaN	5.481166	0.282763	8.160682	0.016400	0.087049	0.021539	1.000000	-0.000031	0.000023	0.000023
50622	NaN	5.494980	0.301507	8.165071	0.032976	0.099654	0.033281	1.000000	-0.000010	0.000031	0.000038
50623	NaN	5.466081	0.261919	8.157216	-0.002114	0.073633	0.009806	1.000000	-0.000038	0.000024	0.000032
50624	NaN	5.477694	0.305629	8.195457	0.007267	0.117706	0.048861	1.000000	-0.000038	0.000025	0.000024
50625	NaN	5.414952	0.259581	8.190155	-0.058181	0.099393	0.008436	1.000000	-0.000028	0.000030	0.000023
50626	NaN	5.464864	0.259493	8.158108	-0.005423	0.072465	0.009814	1.000000	-0.000023	0.000020	0.000029
50627	NaN	5.487216	0.238782	8.174844	-0.008800	0.049029	0.035772	1.000000	-0.000024	0.000023	0.000006
50628	NaN	5.503338	0.232640	8.145319	0.014974	0.030166	0.020214	1.000000	0.000001	0.000022	0.000019
50629	NaN	5.522694	0.219336	8.138842	0.025250	0.008375	0.025417	1.000000	-0.000011	0.000008	0.000027
50630	NaN	5.478018	0.277523	8.162975	0.006523	0.083246	0.021584	1.000000	0.000012	0.000012	0.000000
50631	NaN	5.463651	0.258364	8.158957	-0.011961	0.069245	0.009831	1.000000	0.000017	0.000003	-0.000002
50632	NaN	5.472386	0.310325	8.173888	0.010010	0.115311	0.028164	1.000000	0.000015	0.000017	0.000017
50633	NaN	5.463623	0.349838	8.161702	0.025853	0.150130	0.013997	1.000000	0.000000	0.000023	0.000011
50634	NaN	5.471756	0.310066	8.174320	0.007021	0.114564	0.028176	1.000000	-0.000009	0.000016	0.000019
50635	NaN	5.490995	0.296791	8.167925	0.018710	0.093044	0.033383	1.000000	0.000004	0.000028	0.000027
50636	NaN	5.507144	0.290460	8.138400	0.042508	0.074204	0.017838	1.000000	-0.000033	0.000016	0.000022
50637	NaN	5.503693	0.296976	8.115529	0.053516	0.075795	-0.002895	1.000000	-0.000022	0.000029	0.000014
50638	NaN	5.526017	0.276259	8.132287	0.051874	0.052930	0.023053	1.000000	-0.000015	0.000016	0.000036
50639	NaN	5.536880	0.302081	8.113477	0.079470	0.066874	0.014114	1.000000	-0.000030	0.000022	0.000031
50640	NaN	5.525378	0.274731	8.132773	0.048856	0.052057	0.023073	1.000000	-0.000031	0.000023	0.000023
50641	NaN	5.505404	0.287002	8.139699	0.033918	0.072039	0.017888	1.000000	-0.000021	0.000027	0.000030
50642	NaN	5.505021	0.286150	8.139989	0.033219	0.071933	0.017891	1.000000	-0.000037	0.000023	0.000040
50643	NaN	5.473762	0.271540	8.166031	-0.009941	0.077438	0.021628	1.000000	-0.000029	0.000043	0.000049
50644	NaN	5.484413	0.297321	8.147381	0.019288	0.092043	0.012696	1.000000	-0.000024	0.000022	0.000014
50645	NaN	5.456433	0.275595	8.196413	-0.037997	0.095207	0.037150	1.000000	-0.000054	0.000019	0.000049
50646	NaN	5.467251	0.300946	8.177674	-0.008777	0.109817	0.028228	1.000000	-0.000045	0.000027	0.000025
50647	NaN	5.472091	0.267747	8.167276	-0.014061	0.075367	0.021639	1.000000	-0.000018	0.000034	0.000031
50648	NaN	5.502315	0.280478	8.142015	0.026923	0.069234	0.017930	1.000000	-0.000042	0.000033	0.000033
50649	NaN	5.507219	0.247121	8.131575	0.019693	0.034724	0.011336	1.000000	-0.000030	0.000021	0.000038
50650	NaN	5.515770	0.298026	8.146745	0.041562	0.080774	0.029758	1.000000	-0.000028	0.000029	0.000031
50651	NaN	5.476172	0.323099	8.160346	0.015234	0.121588	0.019356	1.000000	-0.000045	0.000027	0.000025
50652	NaN	5.456166	0.335146	8.167305	0.002749	0.142219	0.014149	1.000000	-0.000027	0.000028	0.000039
50653	NaN	5.421772	0.327635	8.170226	-0.027735	0.149020	-0.002868	1.000000	-0.000054	0.000044	0.000044
50654	NaN	5.419046	0.351431	8.204496	-0.035832	0.180314	0.024462	1.000000	-0.000054	0.000019	0.000049
50655	NaN	5.423861	0.317605	8.194114	-0.042811	0.146106	0.017850	1.000000	-0.000062	0.000046	0.000045
50656	NaN	5.412035	0.289436	8.213574	-0.073457	0.131225	0.026727	1.000000	-0.000074	0.000033	0.000045
50657	NaN	5.408422	0.294983	8.190870	-0.060985	0.132115	0.006031	1.000000	-0.000063	0.000037	0.000053
50658	NaN	5.396675	0.266825	8.210258	-0.091623	0.117217	0.014901	1.000000	-0.000066	0.000031	0.000044
50659	NaN	5.424617	0.303993	8.219005	-0.059370	0.141672	0.038573	1.000000	-0.000061	0.000045	0.000053
50660	NaN	5.448970	0.257105	8.201977	-0.053662	0.087354	0.037150	1.000000	-0.000061	0.000022	0.000042
50661	NaN	5.465051	0.250198	8.172544	-0.030979	0.067797	0.021656	1.000000	-0.000036	0.000034	0.000017
50662	NaN	5.478916	0.268471	8.177011	-0.014570	0.080394	0.033501	1.000000	-0.000054	0.000019	0.000049
50663	NaN	5.467184	0.240751	8.196346	-0.046491	0.065022	0.042350	1.000000	-0.000030	0.000046	0.000034
50664	NaN	5.458303	0.279380	8.184414	-0.029090	0.100412	0.028290	1.000000	-0.000037	0.000023	0.000040
50665	NaN	5.499951	0.318513	8.140163	0.042291	0.108235	0.015826	1.000000	-0.000045	0.000027	0.000025
50666	NaN	5.507819	0.277852	8.152835	0.023430	0.072579	0.029882	1.000000	-0.000042	0.000032	0.000041
50667	NaN	5.493080	0.257273	8.149014	0.005662	0.059190	0.018030	1.000000	-0.000052	0.000027	0.000042
50668	NaN	5.526522	0.262283	8.146870	0.033851	0.051043	0.035103	1.000000	-0.000051	0.000026	0.000050
50669	NaN	5.489131	0.261919	8.126591	0.015202	0.060240	-0.002653	1.000000	-0.000040	0.000039	0.000042
50670	NaN	5.502904	0.279926	8.131160	0.031593	0.072829	0.009216	1.000000	-0.000058	0.000027	0.000059
50671	NaN	5.505353	0.271397	8.154717	0.017992	0.069823	0.029913	1.000000	-0.000038	0.000048	0.000035
50672	NaN	5.485135	0.283167	8.161835	0.005460	0.090417	0.024703	1.000000	-0.000056	0.000035	0.000051
50673	NaN	5.483695	0.263840	8.105270	0.022834	0.060806	-0.023320	1.000000	-0.000051	0.000050	0.000053
50674	NaN	5.505618	0.242140	8.122248	0.021064	0.037861	0.002581	1.000000	-0.000056	0.000035	0.000051
50675	NaN	5.519404	0.259925	8.126834	0.037961	0.049510	0.014465	1.000000	-0.000066	0.000030	0.000052
50676	NaN	5.502291	0.264289	8.157017	0.012624	0.068028	0.029934	1.000000	-0.000047	0.000043	0.000035
50677	NaN	5.487366	0.243562	8.153284	-0.004946	0.054400	0.018058	1.000000	-0.000063	0.000037	0.000053
50678	NaN	5.506322	0.229185	8.147096	0.006100	0.033526	0.023273	1.000000	-0.000040	0.000039	0.000042
50679	NaN	5.500421	0.260365	8.158404	0.010833	0.065889	0.029951	1.000000	-0.000047	0.000042	0.000043
50680	NaN	5.502803	0.251891	8.181980	-0.002722	0.063654	0.050630	1.000000	-0.000039	0.000038	0.000050
50681	NaN	5.496186	0.265368	8.136190	0.022410	0.067010	0.009282	1.000000	-0.000033	0.000038	0.000033
50682	NaN	5.498564	0.257141	8.159758	0.008855	0.064771	0.029960	1.000000	-0.000040	0.000041	0.000034
50683	NaN	5.478357	0.269028	8.166864	-0.004606	0.084510	0.024756	1.000000	-0.000047	0.000042	0.000043
50684	NaN	5.494283	0.262203	8.137579	0.019269	0.065736	0.009297	1.000000	-0.000033	0.000038	0.000033
50685	NaN	5.510935	0.273127	8.165391	0.021502	0.075492	0.041878	1.000000	-0.000054	0.000044	0.000044
50686	NaN	5.512555	0.246554	8.131898	0.028284	0.043989	0.014524	1.000000	-0.000063	0.000037	0.000053
50687	NaN	5.495302	0.250934	8.162149	0.001898	0.061668	0.029984	1.000000	-0.000045	0.000050	0.000036
50688	NaN	5.469758	0.295060	8.180185	-0.005381	0.115696	0.031464	1.000000	-0.000054	0.000044	0.000044
50689	NaN	5.505186	0.274806	8.144330	0.029461	0.075384	0.021242	1.000000	-0.000061	0.000045	0.000053
50690	NaN	5.456357	0.247641	8.142969	-0.017273	0.070473	-0.007799	1.000000	-0.000064	0.000039	0.000045
50691	NaN	5.478223	0.225878	8.159939	-0.020410	0.046673	0.018078	1.000000	-0.000044	0.000046	0.000060
50692	NaN	5.486639	0.275947	8.175556	0.001167	0.092716	0.036702	1.000000	-0.000070	0.000038	0.000062
50693	NaN	5.457328	0.235592	8.167563	-0.034016	0.066804	0.012860	1.000000	-0.000069	0.000048	0.000047
50694	NaN	5.476061	0.221045	8.161522	-0.022969	0.045924	0.018076	1.000000	-0.000060	0.000054	0.000038
50695	NaN	5.476150	0.310858	8.165034	0.017285	0.127233	0.022767	1.000000	-0.000050	0.000047	0.000069
50696	NaN	5.418894	0.249712	8.205598	-0.072216	0.105407	0.023078	1.000000	-0.000071	0.000040	0.000054
50697	NaN	5.418199	0.248093	8.206106	-0.073017	0.104560	0.023081	1.000000	-0.000051	0.000049	0.000061
50698	NaN	5.443079	0.292419	8.192127	-0.026765	0.131966	0.026288	1.000000	-0.000066	0.000054	0.000055
50699	NaN	5.452631	0.226096	8.170967	-0.038446	0.064218	0.012861	1.000000	-0.000056	0.000058	0.000063
50700	NaN	5.466006	0.243916	8.175924	-0.022127	0.076782	0.024795	1.000000	-0.000057	0.000062	0.000039
50701	NaN	5.465254	0.242560	8.176467	-0.022441	0.076017	0.024800	1.000000	-0.000049	0.000033	0.000050
50702	NaN	5.492263	0.188482	8.182536	-0.029540	0.019556	0.043941	1.000000	-0.000060	0.000054	0.000038
50703	NaN	5.457922	0.254479	8.131307	0.002386	0.079542	-0.016490	1.000000	-0.000046	0.000040	0.000051
50704	NaN	5.519535	0.224383	8.192121	0.003716	0.044280	0.067822	1.000000	-0.000046	0.000040	0.000051
50705	NaN	5.518279	0.205505	8.135422	0.024528	0.014273	0.019806	1.000000	-0.000043	0.000033	0.000034
50706	NaN	5.492887	0.249861	8.153433	0.017277	0.068292	0.021322	1.000000	-0.000038	0.000048	0.000035
50707	NaN	5.466481	0.202928	8.168412	-0.031449	0.040432	0.018077	1.000000	-0.000032	0.000036	0.000049
50708	NaN	5.494623	0.240400	8.177404	0.001964	0.065678	0.041971	1.000000	-0.000042	0.000032	0.000041
50709	NaN	5.491141	0.246818	8.154702	0.014309	0.066632	0.021338	1.000000	-0.000026	0.000037	0.000024
50710	NaN	5.462480	0.225094	8.203669	-0.041042	0.070246	0.045453	1.000000	-0.000041	0.000042	0.000026
50711	NaN	5.424993	0.225464	8.183353	-0.058388	0.080049	0.007641	1.000000	-0.000016	0.000043	0.000024
50712	NaN	5.427290	0.217584	8.206884	-0.072018	0.077768	0.028274	1.000000	-0.000019	0.000035	0.000023
50713	NaN	5.421554	0.249389	8.218187	-0.068740	0.110285	0.035011	1.000000	-0.000011	0.000032	0.000030
50714	NaN	5.423934	0.241517	8.241659	-0.082381	0.107995	0.055640	1.000000	-0.000019	0.000035	0.000023
50715	NaN	5.417582	0.255771	8.195811	-0.058095	0.111244	0.014377	1.000000	-0.000015	0.000028	0.000005
50716	NaN	5.461423	0.197117	8.171937	-0.040586	0.036155	0.018060	1.000000	0.000011	0.000025	0.000027
50717	NaN	5.467228	0.255935	8.164379	-0.005674	0.084017	0.016152	1.000000	0.000003	0.000029	0.000020
50718	NaN	5.525326	0.216542	8.144891	0.028869	0.021615	0.031807	1.000000	-0.000012	0.000036	0.000006
50719	NaN	5.541441	0.210713	8.115528	0.051969	0.002063	0.016405	1.000000	0.000010	0.000028	0.000011
50720	NaN	5.524453	0.216416	8.145486	0.026541	0.020506	0.031816	1.000000	-0.000003	0.000017	0.000003
50721	NaN	5.482148	0.249785	8.135825	0.013578	0.063454	0.000762	1.000000	0.000000	0.000023	0.000011
50722	NaN	5.482358	0.267295	8.193241	-0.007686	0.092469	0.048767	1.000000	0.000003	0.000029	0.000020
50723	NaN	5.465246	0.272783	8.223279	-0.033993	0.110258	0.064171	1.000000	-0.000004	0.000031	0.000021
50724	NaN	5.428006	0.273572	8.202773	-0.050700	0.120259	0.026344	1.000000	-0.000025	0.000024	-0.000002
50725	NaN	5.429794	0.248043	8.169088	-0.046388	0.088512	-0.001051	1.000000	-0.000026	0.000037	0.000024
50726	NaN	5.463175	0.253751	8.167160	-0.018347	0.080278	0.016167	1.000000	0.000004	0.000026	0.000036
50727	NaN	5.490467	0.200667	8.172957	-0.025982	0.023356	0.035231	1.000000	-0.000009	0.000016	0.000019
50728	NaN	5.448143	0.233772	8.163310	-0.037352	0.066809	0.004170	1.000000	-0.000014	0.000027	0.000013
50729	NaN	5.464455	0.227752	8.133832	-0.013733	0.047603	-0.011213	1.000000	-0.000002	0.000014	0.000018
50730	NaN	5.456675	0.284802	8.179011	-0.016791	0.112174	0.022951	1.000000	-0.000006	0.000024	0.000020
50731	NaN	5.436727	0.297479	8.185902	-0.031448	0.132288	0.017725	1.000000	-0.000003	0.000028	0.000037
50732	NaN	5.455802	0.283827	8.179628	-0.020500	0.111354	0.022953	1.000000	-0.000028	0.000030	0.000023
50733	NaN	5.426621	0.244675	8.171298	-0.058084	0.085147	-0.001084	1.000000	-0.000022	0.000029	0.000014
50734	NaN	5.441265	0.280879	8.232997	-0.062384	0.126826	0.058914	1.000000	-0.000024	0.000010	0.000045
50735	NaN	5.407141	0.273928	8.235442	-0.091924	0.134379	0.041662	1.000000	-0.000023	0.000021	0.000022
50736	NaN	5.409045	0.248341	8.201677	-0.085110	0.102893	0.014271	1.000000	-0.000021	0.000028	0.000022
50737	NaN	5.442559	0.253892	8.199684	-0.057749	0.093889	0.031528	1.000000	-0.000023	0.000020	0.000030
50738	NaN	5.402600	0.261818	8.155960	-0.061446	0.106052	-0.026917	1.000000	-0.000016	0.000019	0.000021
50739	NaN	5.422306	0.265808	8.206797	-0.071691	0.114165	0.026286	1.000000	-0.000018	0.000034	0.000031
50740	NaN	5.424828	0.257873	8.230153	-0.085445	0.111867	0.046869	1.000000	-0.000019	0.000011	0.000020
50741	NaN	5.373926	0.256928	8.262355	-0.141578	0.138008	0.044924	1.000000	-0.000011	0.000033	0.000022
50742	NaN	5.396418	0.309831	8.225165	-0.082355	0.167368	0.027834	1.000000	-0.000007	0.000025	0.000012
50743	NaN	5.386956	0.257815	8.210068	-0.105281	0.120641	0.008990	1.000000	-0.000018	0.000010	0.000028
50744	NaN	5.437302	0.257808	8.178270	-0.052655	0.093674	0.010921	1.000000	-0.000009	0.000016	0.000019
50745	NaN	5.451446	0.276628	8.182778	-0.039248	0.105665	0.022959	1.000000	-0.000019	0.000011	0.000020
50746	NaN	5.473041	0.238075	8.142305	-0.020748	0.053400	0.000809	1.000000	-0.000016	0.000019	0.000021
50747	NaN	5.526111	0.230599	8.133719	0.017630	0.023693	0.023348	1.000000	-0.000021	0.000027	0.000030
50748	NaN	5.561922	0.211373	8.097698	0.053186	-0.015928	0.013262	1.000000	0.000001	0.000022	0.000019
50749	NaN	5.542127	0.223987	8.104488	0.040752	0.004165	0.008025	1.000000	-0.000025	0.000012	0.000029
50750	NaN	5.542406	0.241100	8.161850	0.019329	0.033165	0.055987	1.000000	-0.000007	0.000025	0.000012
50751	NaN	5.502440	0.249248	8.118131	0.014631	0.044562	-0.002447	1.000000	-0.000016	0.000017	0.000028
50752	NaN	5.519363	0.260647	8.145812	0.017868	0.054894	0.030190	1.000000	-0.000006	0.000022	0.000028
50753	NaN	5.465614	0.267110	8.154875	-0.022405	0.082985	0.007643	1.000000	-0.000016	0.000019	0.000021
50754	NaN	5.450907	0.247347	8.150760	-0.040269	0.070157	-0.004430	1.000000	-0.000013	0.000025	0.000029
50755	NaN	5.462692	0.290930	8.189384	-0.032307	0.113325	0.035042	1.000000	-0.000025	0.000012	0.000029
50756	NaN	5.447925	0.270865	8.185316	-0.050172	0.100498	0.022963	1.000000	-0.000033	0.000038	0.000033
50757	NaN	5.433597	0.268424	8.238475	-0.089693	0.116409	0.058832	1.000000	-0.000021	0.000027	0.000030
50758	NaN	5.410777	0.288005	8.222286	-0.089211	0.139127	0.033028	1.000000	-0.000034	0.000029	0.000048
50759	NaN	5.407482	0.294329	8.199514	-0.078074	0.140749	0.012465	1.000000	-0.000045	0.000027	0.000025
50760	NaN	5.460442	0.286320	8.191047	-0.038502	0.111607	0.035039	1.000000	-0.000042	0.000032	0.000041
50761	NaN	5.457148	0.292543	8.168286	-0.025308	0.112994	0.014496	1.000000	-0.000044	0.000025	0.000041
50762	NaN	5.484259	0.238543	8.174138	-0.032841	0.056480	0.033442	1.000000	-0.000052	0.000028	0.000034
50763	NaN	5.512011	0.258025	8.126081	0.021075	0.051712	0.009681	1.000000	-0.000066	0.000030	0.000052
50764	NaN	5.497750	0.254828	8.179203	-0.017446	0.068066	0.045538	1.000000	-0.000051	0.000026	0.000050
50765	NaN	5.460482	0.254618	8.158712	-0.031970	0.077327	0.007663	1.000000	-0.000053	0.000041	0.000060
50766	NaN	5.448426	0.226643	8.177803	-0.062841	0.062382	0.016114	1.000000	-0.000044	0.000025	0.000041
50767	NaN	5.448050	0.225433	8.178087	-0.063348	0.061573	0.016115	1.000000	-0.000044	0.000024	0.000049
50768	NaN	5.406296	0.275427	8.225663	-0.095173	0.134237	0.033040	1.000000	-0.000035	0.000030	0.000040
50769	NaN	5.411022	0.242182	8.214972	-0.102215	0.099848	0.026172	1.000000	-0.000030	0.000022	0.000031
50770	NaN	5.405575	0.273601	8.226198	-0.097686	0.133062	0.033032	1.000000	-0.000029	0.000019	0.000046
50771	NaN	5.413967	0.306658	8.184665	-0.055733	0.149132	0.004057	1.000000	-0.000038	0.000024	0.000032
50772	NaN	5.480574	0.244091	8.234485	-0.060577	0.080152	0.081398	1.000000	-0.000042	0.000032	0.000041
50773	NaN	5.456685	0.228458	8.103982	-0.018565	0.044338	-0.040286	1.000000	-0.000034	0.000029	0.000048
50774	NaN	5.482696	0.290429	8.147249	0.007035	0.100636	0.011354	1.000000	-0.000074	0.000034	0.000045
50775	NaN	5.490076	0.249396	8.159761	-0.011962	0.064366	0.025023	1.000000	-0.000033	0.000038	0.000033
50776	NaN	5.447645	0.281830	8.150285	-0.023080	0.107895	-0.005993	1.000000	-0.000056	0.000035	0.000052
50777	NaN	5.467167	0.284758	8.201272	-0.032669	0.115559	0.047203	1.000000	-0.000048	0.000032	0.000058
50778	NaN	5.449355	0.271456	8.174215	-0.037501	0.104888	0.014547	1.000000	-0.000061	0.000045	0.000053
50779	NaN	5.442323	0.210914	8.182286	-0.075022	0.056240	0.016065	1.000000	-0.000058	0.000027	0.000059
50780	NaN	5.451203	0.260748	8.198052	-0.053409	0.102030	0.035074	1.000000	-0.000065	0.000028	0.000068
50781	NaN	5.472362	0.221145	8.157829	-0.034914	0.049113	0.012901	1.000000	-0.000060	0.000054	0.000038
50782	NaN	5.494137	0.199327	8.174716	-0.037142	0.025975	0.038668	1.000000	-0.000039	0.000014	0.000047
50783	NaN	5.493741	0.198115	8.175012	-0.036003	0.025269	0.038674	1.000000	-0.000039	0.000037	0.000058
50784	NaN	5.504372	0.206151	8.099507	0.013939	0.010626	-0.017673	1.000000	-0.000037	0.000023	0.000040
50785	NaN	5.504500	0.222527	8.156992	-0.007844	0.039167	0.030278	1.000000	-0.000045	0.000026	0.000033
50786	NaN	5.501833	0.246190	8.191396	-0.016295	0.070236	0.057700	1.000000	-0.000044	0.000022	0.000057
50787	NaN	5.481430	0.240665	8.141088	-0.006503	0.060856	0.004520	1.000000	-0.000034	0.000029	0.000048
50788	NaN	5.500995	0.243814	8.192030	-0.016373	0.068975	0.057709	1.000000	-0.000052	0.000028	0.000034
50789	NaN	5.483366	0.230865	8.164816	-0.022183	0.057714	0.025046	1.000000	-0.000044	0.000025	0.000041
50790	NaN	5.468496	0.210410	8.160704	-0.040046	0.044930	0.012901	1.000000	-0.000049	0.000033	0.000050
50791	NaN	5.499128	0.222643	8.135850	-0.000187	0.038104	0.009766	1.000000	-0.000042	0.000031	0.000049
50792	NaN	5.496435	0.246332	8.170285	-0.008659	0.069160	0.037195	1.000000	-0.000037	0.000021	0.000048
50793	NaN	5.481654	0.225997	8.166102	-0.027060	0.056087	0.025044	1.000000	-0.000044	0.000025	0.000041
50794	NaN	5.476070	0.257062	8.177534	-0.022459	0.089268	0.031957	1.000000	-0.000047	0.000040	0.000051
50795	NaN	5.497273	0.217784	8.137236	-0.004158	0.036686	0.009770	1.000000	-0.000049	0.000034	0.000043
50796	NaN	5.486657	0.280870	8.159723	0.005913	0.103249	0.023607	1.000000	-0.000065	0.000028	0.000068
50797	NaN	5.491077	0.246922	8.149148	-0.001249	0.069227	0.016693	1.000000	-0.000049	0.000056	0.000062
50798	NaN	5.475914	0.226203	8.145214	-0.019128	0.056474	0.004530	1.000000	-0.000064	0.000037	0.000053
50799	NaN	5.458647	0.230172	8.175297	-0.044763	0.074608	0.019796	1.000000	-0.000073	0.000032	0.000053
50800	NaN	5.419122	0.254606	8.188900	-0.068758	0.116086	0.009308	1.000000	-0.000070	0.000037	0.000070
50801	NaN	5.413497	0.285014	8.200417	-0.065215	0.148630	0.016234	1.000000	-0.000070	0.000037	0.000070
50802	NaN	5.403983	0.248951	8.242538	-0.109269	0.131656	0.045060	1.000000	-0.000078	0.000041	0.000063
50803	NaN	5.381144	0.267645	8.226507	-0.108937	0.153811	0.019314	1.000000	-0.000081	0.000035	0.000054
50804	NaN	5.387964	0.208716	8.181640	-0.107612	0.088960	-0.015062	1.000000	-0.000055	0.000031	0.000075
50805	NaN	5.399645	0.250905	8.220671	-0.099032	0.131912	0.024555	1.000000	-0.000073	0.000031	0.000061
50806	NaN	5.404289	0.216758	8.209882	-0.105332	0.098323	0.017609	1.000000	-0.000067	0.000020	0.000067
50807	NaN	5.398808	0.247338	8.221328	-0.100769	0.131232	0.024546	1.000000	-0.000064	0.000037	0.000053
50808	NaN	5.422774	0.200192	8.204029	-0.095523	0.076796	0.022841	1.000000	-0.000073	0.000032	0.000053
50809	NaN	5.470227	0.206414	8.149559	-0.030556	0.051228	0.004530	1.000000	-0.000059	0.000028	0.000051
50810	NaN	5.484197	0.223920	8.154444	-0.014341	0.063531	0.016721	1.000000	-0.000063	0.000035	0.000069
50811	NaN	5.481439	0.246915	8.189002	-0.023146	0.094014	0.044164	1.000000	-0.000065	0.000028	0.000068
50812	NaN	5.463612	0.233503	8.161887	-0.027928	0.083398	0.011479	1.000000	-0.000066	0.000053	0.000063
50813	NaN	5.518764	0.199677	8.119434	0.019826	0.022348	0.006729	1.000000	-0.000067	0.000018	0.000083
50814	NaN	5.529947	0.224357	8.101324	0.049159	0.036736	-0.001554	1.000000	-0.000072	0.000054	0.000072
50815	NaN	5.514716	0.203049	8.097369	0.030007	0.023494	-0.013746	1.000000	-0.000081	0.000045	0.000096
50816	NaN	5.550639	0.199060	8.118937	0.044640	0.012807	0.024192	1.000000	-0.000096	0.000052	0.000083
50817	NaN	5.530383	0.209664	8.126139	0.031985	0.033006	0.018952	1.000000	-0.000095	0.000049	0.000099
50818	NaN	5.498441	0.193549	8.151805	-0.010564	0.039075	0.021976	1.000000	-0.000098	0.000043	0.000090
50819	NaN	5.454658	0.150927	8.196003	-0.083410	0.030179	0.033259	1.000000	-0.000087	0.000057	0.000082
50820	NaN	5.446336	0.188377	8.184573	-0.065580	0.065418	0.019744	1.000000	-0.000088	0.000023	0.000094
50821	NaN	5.440726	0.218315	8.196218	-0.060976	0.098413	0.026710	1.000000	-0.000087	0.000058	0.000075
50822	NaN	5.396916	0.175798	8.240375	-0.133723	0.089985	0.037968	1.000000	-0.000091	0.000041	0.000089
50823	NaN	5.391374	0.205892	8.251978	-0.129455	0.122885	0.044928	1.000000	-0.000062	0.000032	0.000084
50824	NaN	5.388253	0.211513	8.229249	-0.117161	0.124751	0.024449	1.000000	-0.000075	0.000023	0.000068
50825	NaN	5.397283	0.260943	8.245400	-0.095676	0.169787	0.043650	1.000000	-0.000067	0.000043	0.000078
50826	NaN	5.398946	0.234159	8.211613	-0.088970	0.138303	0.016198	1.000000	-0.000087	0.000034	0.000071
50827	NaN	5.432358	0.237874	8.210012	-0.062171	0.129261	0.033673	1.000000	-0.000076	0.000037	0.000087
50828	NaN	5.439370	0.195688	8.222337	-0.081773	0.093623	0.047151	1.000000	-0.000110	0.000043	0.000059
50829	NaN	5.447871	0.227467	8.181319	-0.039269	0.109488	0.018462	1.000000	-0.000101	0.000037	0.000081
50830	NaN	5.435505	0.198375	8.200188	-0.070346	0.094757	0.026684	1.000000	-0.000087	0.000033	0.000079
50831	NaN	5.435002	0.195882	8.200581	-0.071057	0.094052	0.026685	1.000000	-0.000111	0.000032	0.000082
50832	NaN	5.470625	0.174595	8.164759	-0.035831	0.054091	0.016723	1.000000	-0.000092	0.000044	0.000073
50833	NaN	5.458230	0.145641	8.183602	-0.068056	0.039000	0.024928	1.000000	-0.000089	0.000027	0.000070
50834	NaN	5.457721	0.143398	8.183982	-0.068909	0.038783	0.024923	1.000000	-0.000095	0.000038	0.000064
50835	NaN	5.437776	0.154392	8.190974	-0.081180	0.058979	0.019668	1.000000	-0.000100	0.000026	0.000047
50836	NaN	5.403414	0.146464	8.193265	-0.110553	0.067261	0.002158	1.000000	-0.000064	0.000025	0.000084
50837	NaN	5.443662	0.209486	8.184601	-0.047472	0.105955	0.018464	1.000000	-0.000074	0.000059	0.000041
50838	NaN	5.409751	0.103102	8.205921	-0.131573	0.031047	0.015583	1.000000	-0.000063	0.000012	0.000057
50839	NaN	5.406562	0.224951	8.221552	-0.084600	0.145232	0.028409	1.000000	-0.000066	0.000030	0.000052
50840	NaN	5.430403	0.177804	8.204039	-0.079735	0.090753	0.026650	1.000000	-0.000074	0.000034	0.000045
50841	NaN	5.447039	0.187521	8.232124	-0.076045	0.100465	0.059363	1.000000	-0.000063	0.000036	0.000061
50842	NaN	5.455780	0.220004	8.191073	-0.033435	0.116720	0.030730	1.000000	-0.000083	0.000026	0.000061
50843	NaN	5.515768	0.153851	8.137313	0.007214	0.021905	0.019032	1.000000	-0.000068	0.000046	0.000063
50844	NaN	5.483811	0.138503	8.162774	-0.035316	0.028218	0.021956	1.000000	-0.000081	0.000035	0.000054
50845	NaN	5.497315	0.138751	8.110547	0.002149	0.010607	-0.013678	1.000000	-0.000068	0.000046	0.000063
50846	NaN	5.487430	0.102640	8.152395	-0.042187	-0.006061	0.014934	1.000000	-0.000074	0.000034	0.000045
50847	NaN	5.477091	0.165499	8.175390	-0.031872	0.060234	0.028972	1.000000	-0.000064	0.000037	0.000053
50848	NaN	5.447434	0.125822	8.166452	-0.066954	0.035320	0.004419	1.000000	-0.000056	0.000034	0.000060
50849	NaN	5.473346	0.170050	8.153168	-0.021109	0.061488	0.008532	1.000000	-0.000056	0.000035	0.000052
50850	NaN	5.492265	0.155371	8.146914	-0.010621	0.040299	0.013786	1.000000	-0.000059	0.000029	0.000043
50851	NaN	5.504092	0.197484	8.186285	-0.001178	0.083320	0.053535	1.000000	-0.000066	0.000031	0.000044
50852	NaN	5.471732	0.165591	8.154343	-0.023079	0.060469	0.008534	1.000000	-0.000062	0.000047	0.000038
50853	NaN	5.468812	0.188641	8.189168	-0.031966	0.091222	0.035999	1.000000	-0.000064	0.000037	0.000053
50854	NaN	5.451124	0.175514	8.161831	-0.036739	0.080700	0.003278	1.000000	-0.000083	0.000027	0.000054
50855	NaN	5.470260	0.177285	8.213057	-0.046123	0.088409	0.056433	1.000000	-0.000073	0.000056	0.000057
50856	NaN	5.452252	0.164073	8.185927	-0.050900	0.077893	0.023710	1.000000	-0.000075	0.000048	0.000064
50857	NaN	5.403305	0.154217	8.241069	-0.117654	0.102972	0.041767	1.000000	-0.000076	0.000049	0.000056
50858	NaN	5.441504	0.125906	8.228268	-0.095934	0.060755	0.052267	1.000000	-0.000073	0.000031	0.000061
50859	NaN	5.406960	0.118481	8.230577	-0.125615	0.069115	0.034703	1.000000	-0.000046	0.000039	0.000059
50860	NaN	5.440301	0.122730	8.229111	-0.098056	0.060163	0.052249	1.000000	-0.000071	0.000041	0.000046
50861	NaN	5.461406	0.083579	8.188505	-0.080403	0.007412	0.030028	1.000000	-0.000034	0.000029	0.000049
50862	NaN	5.460947	0.082486	8.188823	-0.081263	0.007196	0.030021	1.000000	-0.000034	0.000029	0.000049
50863	NaN	5.424010	0.083656	8.167950	-0.097237	0.017445	-0.007967	1.000000	-0.000008	0.000015	0.000027
50864	NaN	5.438624	0.119103	8.230273	-0.101478	0.058813	0.052223	1.000000	-0.000006	0.000024	0.000020
50865	NaN	5.401662	0.120820	8.209409	-0.116921	0.069117	0.014240	1.000000	0.000000	0.000023	0.000011
50866	NaN	5.399083	0.145367	8.243997	-0.125064	0.100213	0.041704	1.000000	0.000015	0.000018	0.000009
50867	NaN	5.430117	0.159018	8.219312	-0.082104	0.092881	0.038870	1.000000	0.000017	0.000025	0.000010
50868	NaN	5.424649	0.174655	8.173455	-0.056471	0.096562	-0.001970	1.000000	0.000020	0.000009	0.000007
50869	NaN	5.475746	0.191877	8.199338	-0.026287	0.097382	0.048325	1.000000	0.000018	-0.000001	0.000022
50870	NaN	5.497139	0.154168	8.158529	-0.008704	0.044797	0.026104	1.000000	0.000013	0.000035	0.000012
50871	NaN	5.477004	0.150568	8.108020	-0.000371	0.035839	-0.027038	1.000000	0.000006	0.000012	0.000017
50872	NaN	5.469649	0.207207	8.153912	-0.002451	0.100195	0.007508	1.000000	0.000001	0.000021	0.000019
50873	NaN	5.491295	0.185993	8.170559	-0.005908	0.076626	0.033177	1.000000	-0.000006	0.000024	0.000020
50874	NaN	5.502480	0.195294	8.095209	0.044178	0.061146	-0.022787	1.000000	-0.000025	0.000035	0.000040
50875	NaN	5.480636	0.249110	8.193948	0.004924	0.142286	0.047330	1.000000	-0.000028	0.000030	0.000024
50876	NaN	5.455741	0.178081	8.173543	-0.036381	0.084471	0.015597	1.000000	-0.000023	0.000042	0.000041
50877	NaN	5.411361	0.235589	8.198635	-0.054213	0.159269	0.012161	1.000000	-0.000069	0.000048	0.000047
50878	NaN	5.408640	0.159601	8.252105	-0.118146	0.107870	0.053949	1.000000	-0.000053	0.000041	0.000061
50879	NaN	5.373846	0.251083	8.235816	-0.092315	0.198730	0.022043	1.000000	-0.000073	0.000031	0.000061
50880	NaN	5.370993	0.158054	8.231736	-0.135802	0.117953	0.015928	1.000000	-0.000073	0.000032	0.000053
50881	NaN	5.348728	0.194097	8.273163	-0.155327	0.169560	0.038146	1.000000	-0.000061	0.000043	0.000062
50882	NaN	5.350317	0.167880	8.239247	-0.148984	0.138025	0.010653	1.000000	-0.000071	0.000040	0.000054
50883	NaN	5.349624	0.166219	8.239730	-0.149010	0.137371	0.010662	1.000000	-0.000051	0.000047	0.000069
50884	NaN	5.358804	0.215583	8.256295	-0.126570	0.182535	0.030093	1.000000	-0.000090	0.000028	0.000063
50885	NaN	5.411316	0.189326	8.190845	-0.067157	0.122511	0.005083	1.000000	-0.000068	0.000045	0.000063
50886	NaN	5.415431	0.155252	8.179957	-0.074136	0.089063	-0.002016	1.000000	-0.000078	0.000042	0.000055
50887	NaN	5.482811	0.164588	8.176714	-0.017644	0.070283	0.033210	1.000000	-0.000094	0.000036	0.000072
50888	NaN	5.482199	0.162332	8.177169	-0.018506	0.070063	0.033210	1.000000	-0.000085	0.000041	0.000072
50889	NaN	5.469104	0.116701	8.138517	-0.029767	0.025960	-0.006638	1.000000	-0.000090	0.000052	0.000066
50890	NaN	5.512148	0.171261	8.153429	0.021022	0.062095	0.030443	1.000000	-0.000099	0.000045	0.000082
50891	NaN	5.494279	0.157627	8.126171	0.015543	0.051187	-0.002298	1.000000	-0.000100	0.000047	0.000066
50892	NaN	5.462091	0.141725	8.151534	-0.026913	0.058074	0.000464	1.000000	-0.000099	0.000045	0.000082
50893	NaN	5.432356	0.117848	8.199938	-0.083819	0.062819	0.023592	1.000000	-0.000111	0.000056	0.000085
50894	NaN	5.465610	0.120849	8.198659	-0.056407	0.053576	0.041218	1.000000	-0.000090	0.000038	0.000105
50895	NaN	5.459828	0.133912	8.153182	-0.031751	0.056721	0.000457	1.000000	-0.000097	0.000053	0.000075
50896	NaN	5.437419	0.070305	8.213073	-0.107019	0.026655	0.036824	1.000000	-0.000084	0.000040	0.000080
50897	NaN	5.480365	0.108264	8.170544	-0.035595	0.032830	0.026091	1.000000	-0.000084	0.000040	0.000080
50898	NaN	5.467566	0.079385	8.189204	-0.067018	0.018651	0.034079	1.000000	-0.000075	0.000046	0.000072
50899	NaN	5.486286	0.064248	8.183038	-0.057873	-0.002984	0.039328	1.000000	-0.000063	0.000036	0.000061
50900	NaN	5.505224	0.049298	8.176721	-0.047735	-0.024347	0.044585	1.000000	-0.000061	0.000019	0.000058
50901	NaN	5.482792	0.068927	8.160728	-0.046384	-0.001930	0.018949	1.000000	-0.000044	0.000047	0.000052
50902	NaN	5.462864	0.081107	8.167732	-0.058259	0.019003	0.013683	1.000000	-0.000030	0.000020	0.000039
50903	NaN	5.428705	0.091046	8.227258	-0.108226	0.057172	0.043880	1.000000	-0.000024	0.000031	0.000064
50904	NaN	5.454757	0.119221	8.156803	-0.040856	0.053402	0.000442	1.000000	-0.000020	0.000025	0.000038
50905	NaN	5.471486	0.129477	8.184927	-0.037228	0.063077	0.033205	1.000000	-0.000027	0.000026	0.000047
50906	NaN	5.529260	0.088626	8.165302	-0.005225	-0.000657	0.048991	1.000000	-0.000030	0.000019	0.000047
50907	NaN	5.516599	0.143381	8.108102	0.040552	0.037379	-0.004950	1.000000	-0.000025	0.000035	0.000040
50908	NaN	5.516158	0.142392	8.108420	0.039679	0.037158	-0.004946	1.000000	-0.000037	0.000021	0.000048
50909	NaN	5.477256	0.184055	8.179438	-0.003055	0.108275	0.032397	1.000000	-0.000073	0.000031	0.000061
50910	NaN	5.457231	0.178940	8.128909	0.005507	0.099730	-0.020723	1.000000	-0.000068	0.000020	0.000067
50911	NaN	5.440160	0.199018	8.216332	-0.040545	0.148036	0.042235	1.000000	-0.000088	0.000037	0.000056
50912	NaN	5.390914	0.172292	8.213666	-0.086887	0.145048	0.012146	1.000000	-0.000094	0.000036	0.000072
50913	NaN	5.354019	0.188557	8.250385	-0.122326	0.185058	0.021982	1.000000	-0.000117	0.000044	0.000068
50914	NaN	5.357992	0.153632	8.239420	-0.129583	0.151673	0.014821	1.000000	-0.000114	0.000049	0.000085
50915	NaN	5.320693	0.153113	8.218759	-0.145075	0.162327	-0.023212	1.000000	-0.000103	0.000051	0.000100
50916	NaN	5.356478	0.147923	8.240509	-0.131142	0.151039	0.014810	1.000000	-0.000133	0.000039	0.000085
50917	NaN	5.357861	0.120650	8.206604	-0.123785	0.118990	-0.012683	1.000000	-0.000116	0.000067	0.000079
50918	NaN	5.408082	0.134386	8.233397	-0.092560	0.119630	0.037763	1.000000	-0.000120	0.000050	0.000094
50919	NaN	5.389960	0.120360	8.206215	-0.097122	0.109004	0.004991	1.000000	-0.000120	0.000074	0.000097
50920	NaN	5.391348	0.109422	8.229936	-0.111368	0.106998	0.025331	1.000000	-0.000125	0.000059	0.000095
50921	NaN	5.351698	0.133027	8.243868	-0.133284	0.148801	0.014816	1.000000	-0.000118	0.000057	0.000094
50922	NaN	5.343367	0.071138	8.250903	-0.171324	0.101745	0.015554	1.000000	-0.000116	0.000040	0.000092
50923	NaN	5.333334	0.132504	8.274519	-0.158617	0.167459	0.029897	1.000000	-0.000130	0.000045	0.000094
50924	NaN	5.327484	0.062792	8.304448	-0.210085	0.118666	0.050966	1.000000	-0.000099	0.000044	0.000082
50925	NaN	5.326815	0.060255	8.304895	-0.212000	0.118302	0.050930	1.000000	-0.000101	0.000037	0.000082
50926	NaN	5.331074	0.025494	8.293579	-0.219411	0.084956	0.043736	1.000000	-0.000101	0.000012	0.000086
50927	NaN	5.354836	-0.022063	8.275494	-0.216274	0.030140	0.041797	1.000000	-0.000054	0.000017	0.000057
50928	NaN	5.398503	0.016830	8.232945	-0.144919	0.035902	0.031255	1.000000	-0.000042	0.000007	0.000046
50929	NaN	5.441685	-0.042973	8.208149	-0.131467	-0.040199	0.034576	1.000000	-0.000026	0.000012	0.000029
50930	NaN	5.517038	0.010242	8.140903	-0.018608	-0.042205	0.021436	1.000000	0.000004	0.000003	0.000025
50931	NaN	5.543998	0.055627	8.127848	0.028752	-0.017463	0.026001	1.000000	-0.000017	-0.000003	0.000001
50932	NaN	5.575451	0.068790	8.103298	0.069361	-0.025410	0.023388	1.000000	0.000012	0.000022	0.000043
50933	NaN	5.558478	0.156755	8.057889	0.121847	0.045333	-0.023207	1.000000	-0.000008	0.000027	-0.000003
50934	NaN	5.601596	0.113560	8.090823	0.115571	-0.000931	0.027985	1.000000	-0.000034	0.000026	0.000064
50935	NaN	5.603812	0.187208	8.038910	0.178368	0.048455	-0.013317	1.000000	-0.000037	0.000046	0.000044
50936	NaN	5.629491	0.131995	8.044158	0.168106	-0.007895	0.005090	1.000000	-0.000099	0.000046	0.000074
50937	NaN	5.590207	0.172487	8.115596	0.125756	0.063611	0.042423	1.000000	-0.000094	0.000058	0.000092
50938	NaN	5.516556	0.190775	8.131271	0.075476	0.115561	0.014179	1.000000	-0.000133	0.000061	0.000097
50939	NaN	5.432354	0.074653	8.205570	-0.077216	0.070683	0.027864	1.000000	-0.000157	0.000060	0.000107
50940	NaN	5.409906	0.108533	8.247446	-0.095446	0.123194	0.050118	1.000000	-0.000141	0.000053	0.000121
50941	NaN	5.384083	0.034900	8.226509	-0.137911	0.066127	0.017960	1.000000	-0.000169	0.000071	0.000110
50942	NaN	5.414169	-0.054352	8.220060	-0.155138	-0.023264	0.029109	1.000000	-0.000125	0.000033	0.000108
50943	NaN	5.384950	0.020377	8.250481	-0.151710	0.063748	0.038275	1.000000	-0.000114	0.000050	0.000077
50944	NaN	5.370950	-0.124156	8.228869	-0.221275	-0.060775	0.011983	1.000000	-0.000077	0.000038	0.000079
50945	NaN	5.356634	-0.029408	8.264216	-0.200738	0.038106	0.033627	1.000000	-0.000052	0.000026	0.000050
50946	NaN	5.382595	-0.083831	8.269044	-0.211335	-0.018180	0.051969	1.000000	-0.000008	0.000015	0.000028
50947	NaN	5.372979	-0.035765	8.234993	-0.178892	0.017858	0.018537	1.000000	0.000022	0.000016	0.000008
50948	NaN	5.423776	-0.035241	8.203881	-0.127794	-0.011790	0.021222	1.000000	0.000045	0.000008	0.000013
50949	NaN	5.443947	0.051278	8.179647	-0.059491	0.047372	0.012791	1.000000	0.000051	-0.000016	-0.000008
50950	NaN	5.463428	0.038793	8.172882	-0.049849	0.025770	0.018050	1.000000	0.000057	-0.000004	0.000010
50951	NaN	5.466492	0.130836	8.178336	-0.004257	0.104544	0.024684	1.000000	0.000053	0.000017	-0.000011
50952	NaN	5.468497	0.107433	8.143848	0.001354	0.072900	-0.002848	1.000000	0.000045	0.000008	0.000013
50953	NaN	5.514957	0.156271	8.181901	0.038984	0.105589	0.054936	1.000000	0.000020	0.000007	0.000015
50954	NaN	5.478382	0.158788	8.160683	0.023623	0.116772	0.016882	1.000000	0.000006	0.000010	0.000025
50955	NaN	5.492865	0.177159	8.165869	0.040277	0.127736	0.029387	1.000000	-0.000013	0.000022	0.000045
50956	NaN	5.456009	0.178766	8.144859	0.024934	0.138933	-0.008668	1.000000	-0.000042	0.000032	0.000042
50957	NaN	5.440866	0.158467	8.140149	0.006471	0.126743	-0.021157	1.000000	-0.000068	0.000020	0.000067
50958	NaN	5.457511	0.167178	8.168470	0.009603	0.136536	0.011647	1.000000	-0.000102	0.000040	0.000066
50959	NaN	5.439715	0.153848	8.141007	0.004972	0.125872	-0.021145	1.000000	-0.000106	0.000047	0.000084
50960	NaN	5.405122	0.161773	8.200723	-0.043691	0.165419	0.008926	1.000000	-0.000123	0.000043	0.000093
50961	NaN	5.365715	0.185315	8.214607	-0.064636	0.207724	-0.001587	1.000000	-0.000142	0.000057	0.000097
50962	NaN	5.378538	0.101301	8.237839	-0.106708	0.138419	0.024506	1.000000	-0.000169	0.000071	0.000110
50963	NaN	5.385226	0.156190	8.232465	-0.067769	0.183906	0.023985	1.000000	-0.000176	0.000072	0.000119
50964	NaN	5.356876	0.106471	8.246132	-0.117165	0.159131	0.019256	1.000000	-0.000166	0.000076	0.000127
50965	NaN	5.336448	0.115415	8.253580	-0.127332	0.180002	0.014009	1.000000	-0.000191	0.000064	0.000152
50966	NaN	5.298862	0.129367	8.290757	-0.162362	0.221246	0.023776	1.000000	-0.000197	0.000100	0.000142
50967	NaN	5.268171	0.103027	8.339085	-0.218911	0.227997	0.046556	1.000000	-0.000201	0.000059	0.000153
50968	NaN	5.254371	0.055230	8.300123	-0.231074	0.184863	0.006474	1.000000	-0.000198	0.000090	0.000157
50969	NaN	5.311063	0.026404	8.338597	-0.219883	0.150037	0.070097	1.000000	-0.000175	0.000070	0.000135
50970	NaN	5.284760	-0.047622	8.317375	-0.263174	0.093999	0.037773	1.000000	-0.000180	0.000079	0.000137
50971	NaN	5.339196	-0.083874	8.275120	-0.219662	0.030682	0.033249	1.000000	-0.000148	0.000053	0.000130
50972	NaN	5.325711	-0.114018	8.293513	-0.251627	0.017602	0.040988	1.000000	-0.000098	0.000064	0.000110
50973	NaN	5.402099	-0.170173	8.267252	-0.211757	-0.068717	0.062004	1.000000	-0.000082	0.000022	0.000085
50974	NaN	5.423122	-0.209294	8.226100	-0.196333	-0.121950	0.039692	1.000000	-0.000034	0.000028	0.000049
50975	NaN	5.437550	-0.191272	8.231468	-0.179966	-0.110815	0.052197	1.000000	0.000009	0.000015	0.000042
50976	NaN	5.466882	-0.169475	8.184214	-0.126055	-0.118372	0.029415	1.000000	0.000059	0.000003	0.000011
50977	NaN	5.479447	-0.141468	8.166419	-0.094430	-0.106230	0.021669	1.000000	0.000085	-0.000010	-0.000011
50978	NaN	5.513752	-0.134304	8.164763	-0.067573	-0.116696	0.039453	1.000000	0.000114	-0.000017	-0.000031
50979	NaN	5.541439	-0.086341	8.151876	-0.019727	-0.093229	0.044240	1.000000	0.000133	-0.000029	-0.000043
50980	NaN	5.547618	-0.016515	8.122653	0.031630	-0.046479	0.023505	1.000000	0.000150	-0.000026	-0.000044
50981	NaN	5.575248	0.031836	8.109734	0.081210	-0.023454	0.028300	1.000000	0.000138	-0.000015	-0.000041
50982	NaN	5.549437	0.088080	8.105044	0.091399	0.032202	0.010060	1.000000	0.000138	-0.000017	-0.000025
50983	NaN	5.511065	0.117214	8.118197	0.071301	0.074739	-0.000448	1.000000	0.000109	-0.000007	-0.000029
50984	NaN	5.468136	0.178031	8.143145	0.058004	0.150663	-0.003663	1.000000	0.000085	-0.000009	-0.000018
50985	NaN	5.465991	0.203493	8.177769	0.051400	0.181576	0.023915	1.000000	0.000066	0.000004	-0.000006
50986	NaN	5.414782	0.204096	8.208992	-0.000708	0.212085	0.021136	1.000000	0.000016	0.000015	0.000025
50987	NaN	5.412272	0.211951	8.186201	0.012613	0.212740	0.000879	1.000000	-0.000001	0.000011	0.000034
50988	NaN	5.384760	0.181701	8.256791	-0.056559	0.218992	0.043889	1.000000	-0.000042	0.000032	0.000042
50989	NaN	5.315926	0.169714	8.260357	-0.110518	0.239140	0.008309	1.000000	-0.000059	0.000052	0.000055
50990	NaN	5.360634	0.101081	8.258674	-0.112758	0.161462	0.031780	1.000000	-0.000058	0.000027	0.000059
50991	NaN	5.328257	0.085903	8.283550	-0.154264	0.170195	0.034248	1.000000	-0.000075	0.000046	0.000072
50992	NaN	5.361572	0.073224	8.224839	-0.108183	0.129234	0.004205	1.000000	-0.000081	0.000035	0.000055
50993	NaN	5.374496	-0.009093	8.247565	-0.151232	0.060553	0.030131	1.000000	-0.000071	0.000038	0.000062
50994	NaN	5.401233	0.034726	8.235260	-0.103085	0.083886	0.034971	1.000000	-0.000056	0.000034	0.000060
50995	NaN	5.441411	-0.017774	8.187630	-0.078491	0.008350	0.017893	1.000000	-0.000056	0.000034	0.000060
50996	NaN	5.455654	-0.000373	8.193129	-0.061626	0.019260	0.030450	1.000000	-0.000032	0.000036	0.000050
50997	NaN	5.470010	0.017353	8.198560	-0.043265	0.029673	0.043018	1.000000	-0.000030	0.000020	0.000039
50998	NaN	5.413957	0.032656	8.184089	-0.068007	0.063083	-0.000313	1.000000	-0.000035	0.000031	0.000033
50999	NaN	5.430545	0.042274	8.212479	-0.063048	0.072179	0.032526	1.000000	-0.000024	0.000031	0.000064
51000	NaN	5.418770	0.097628	8.155830	-0.015234	0.108416	-0.020947	1.000000	-0.000024	0.000032	0.000056
51001	NaN	5.442018	0.066914	8.195413	-0.032140	0.083538	0.024834	1.000000	-0.000039	0.000038	0.000051
51002	NaN	5.475528	0.070799	8.194297	-0.005457	0.072591	0.042647	1.000000	-0.000056	0.000034	0.000060
51003	NaN	5.474928	0.053288	8.137021	0.013883	0.041426	-0.005197	1.000000	-0.000048	0.000030	0.000067
51004	NaN	5.491296	0.062373	8.165579	0.017263	0.051031	0.027638	1.000000	-0.000056	0.000059	0.000056
51005	NaN	5.471150	0.074016	8.172833	0.007843	0.071969	0.022399	1.000000	-0.000083	0.000050	0.000065
51006	NaN	5.436335	0.066667	8.174833	-0.020538	0.082616	0.004585	1.000000	-0.000067	0.000040	0.000095
51007	NaN	5.416478	0.077952	8.181896	-0.029909	0.103657	-0.000649	1.000000	-0.000087	0.000034	0.000072
51008	NaN	5.418137	0.067467	8.205226	-0.044347	0.102319	0.019609	1.000000	-0.000091	0.000040	0.000097
51009	NaN	5.423979	0.024536	8.216889	-0.066293	0.067950	0.032535	1.000000	-0.000108	0.000062	0.000094
51010	NaN	5.403734	0.035358	8.224201	-0.076778	0.089577	0.027290	1.000000	-0.000094	0.000059	0.000084
51011	NaN	5.434635	0.046034	8.200454	-0.036324	0.079150	0.024855	1.000000	-0.000119	0.000058	0.000087
51012	NaN	5.435929	0.019156	8.166307	-0.031894	0.047359	-0.002744	1.000000	-0.000103	0.000050	0.000108
51013	NaN	5.449827	0.035015	8.172134	-0.013995	0.057554	0.009843	1.000000	-0.000116	0.000067	0.000080
51014	NaN	5.433879	0.013536	8.167682	-0.032756	0.046528	-0.002743	1.000000	-0.000106	0.000068	0.000103
51015	NaN	5.407082	0.080020	8.221614	-0.038134	0.131737	0.026981	1.000000	-0.000135	0.000053	0.000104
51016	NaN	5.344580	0.026095	8.236174	-0.115839	0.119973	0.004235	1.000000	-0.000125	0.000058	0.000104
51017	NaN	5.388079	0.078854	8.252530	-0.062518	0.151967	0.042000	1.000000	-0.000127	0.000075	0.000107
51018	NaN	5.350634	0.078428	8.231838	-0.077176	0.163937	0.003919	1.000000	-0.000147	0.000065	0.000107
51019	NaN	5.356141	0.034354	8.243575	-0.098549	0.129544	0.016832	1.000000	-0.000161	0.000066	0.000125
51020	NaN	5.375952	0.116327	8.220933	-0.027771	0.185484	0.008868	1.000000	-0.000142	0.000078	0.000117
51021	NaN	5.409272	-0.005543	8.202269	-0.057810	0.064024	0.012282	1.000000	-0.000168	0.000069	0.000126
51022	NaN	5.433482	0.044108	8.167765	0.004470	0.087235	-0.003027	1.000000	-0.000159	0.000075	0.000118
51023	NaN	5.470674	0.012916	8.155299	0.022869	0.042685	0.007445	1.000000	-0.000187	0.000081	0.000139
51024	NaN	5.490732	-0.013359	8.172424	0.017742	0.019589	0.032927	1.000000	-0.000177	0.000084	0.000154
51025	NaN	5.485035	0.013948	8.185282	0.025570	0.051459	0.040299	1.000000	-0.000201	0.000083	0.000157
51026	NaN	5.449493	-0.011744	8.129902	0.015922	0.031894	-0.025392	1.000000	-0.000199	0.000092	0.000150
51027	NaN	5.460773	0.025649	8.171025	0.028035	0.073723	0.014831	1.000000	-0.000216	0.000088	0.000159
51028	NaN	5.356960	0.020594	8.233828	-0.073153	0.138404	0.009169	1.000000	-0.000223	0.000088	0.000168
51029	NaN	5.340707	-0.003594	8.229389	-0.092098	0.127430	-0.003443	1.000000	-0.000235	0.000075	0.000175
51030	NaN	5.337056	0.014616	8.265238	-0.097760	0.158915	0.024168	1.000000	-0.000225	0.000106	0.000163
51031	NaN	5.322732	-0.017878	8.283751	-0.129666	0.147223	0.031795	1.000000	-0.000242	0.000079	0.000169
51032	NaN	5.357576	-0.042345	8.248425	-0.098575	0.103881	0.022017	1.000000	-0.000238	0.000094	0.000162
51033	NaN	5.362480	-0.088421	8.260148	-0.121094	0.069995	0.034875	1.000000	-0.000232	0.000082	0.000176
51034	NaN	5.373864	-0.067118	8.243552	-0.090236	0.081119	0.027249	1.000000	-0.000223	0.000090	0.000160
51035	NaN	5.393699	-0.094288	8.260610	-0.093879	0.057571	0.052728	1.000000	-0.000208	0.000084	0.000166
51036	NaN	5.375455	-0.109688	8.233086	-0.099228	0.047778	0.019867	1.000000	-0.000219	0.000058	0.000147
51037	NaN	5.357287	-0.124857	8.205499	-0.104727	0.037862	-0.012997	1.000000	-0.000197	0.000075	0.000147
51038	NaN	5.388020	-0.100994	8.239931	-0.082960	0.057684	0.032474	1.000000	-0.000197	0.000075	0.000147
51039	NaN	5.352775	-0.110446	8.241875	-0.111454	0.069191	0.014606	1.000000	-0.000174	0.000056	0.000117
51040	NaN	5.347629	-0.097781	8.196798	-0.085022	0.070486	-0.025859	1.000000	-0.000171	0.000063	0.000118
51041	NaN	5.361548	-0.068145	8.260656	-0.086065	0.111646	0.034617	1.000000	-0.000173	0.000054	0.000125
51042	NaN	5.343526	-0.082390	8.232977	-0.091470	0.101903	0.001752	1.000000	-0.000171	0.000063	0.000118
51043	NaN	5.372482	-0.049613	8.244505	-0.055998	0.122073	0.027020	1.000000	-0.000181	0.000056	0.000126
51044	NaN	5.343702	-0.099282	8.256931	-0.106978	0.100848	0.021961	1.000000	-0.000176	0.000047	0.000124
51045	NaN	5.376961	-0.098528	8.256210	-0.081016	0.088568	0.039826	1.000000	-0.000163	0.000058	0.000133
51046	NaN	5.380108	-0.134518	8.244620	-0.091432	0.056067	0.032409	1.000000	-0.000165	0.000063	0.000101
51047	NaN	5.396255	-0.143464	8.215647	-0.069643	0.034026	0.017420	1.000000	-0.000159	0.000051	0.000115
51048	NaN	5.395389	-0.147068	8.216153	-0.070523	0.033871	0.017414	1.000000	-0.000146	0.000051	0.000089
51049	NaN	5.362384	-0.163772	8.240708	-0.111167	0.045030	0.019752	1.000000	-0.000135	0.000053	0.000105
51050	NaN	5.376599	-0.148552	8.246668	-0.093733	0.054912	0.032393	1.000000	-0.000134	0.000039	0.000086
51051	NaN	5.373914	-0.143103	8.224235	-0.081514	0.055333	0.012167	1.000000	-0.000127	0.000038	0.000077
51052	NaN	5.403303	-0.109127	8.235642	-0.045708	0.075125	0.037472	1.000000	-0.000108	0.000035	0.000107
51053	NaN	5.391565	-0.162440	8.218373	-0.074168	0.032434	0.017392	1.000000	-0.000117	0.000067	0.000080
51054	NaN	5.420750	-0.128101	8.229944	-0.038288	0.052079	0.042704	1.000000	-0.000087	0.000033	0.000080
51055	NaN	5.424323	-0.162622	8.217991	-0.048634	0.019352	0.035275	1.000000	-0.000112	0.000032	0.000082
51056	NaN	5.404524	-0.151681	8.225113	-0.057840	0.041557	0.030041	1.000000	-0.000099	0.000044	0.000083
51057	NaN	5.375739	-0.199462	8.237259	-0.107598	0.020919	0.024933	1.000000	-0.000092	0.000043	0.000074
51058	NaN	5.366782	-0.137714	8.262270	-0.088007	0.085032	0.039797	1.000000	-0.000085	0.000041	0.000073
51059	NaN	5.385238	-0.153343	8.255936	-0.079543	0.062083	0.045030	1.000000	-0.000060	0.000039	0.000086
51060	NaN	5.369672	-0.173675	8.250690	-0.098930	0.052294	0.032357	1.000000	-0.000076	0.000024	0.000061
51061	NaN	5.382293	-0.148290	8.233697	-0.067338	0.061841	0.024816	1.000000	-0.000045	0.000025	0.000041
51062	NaN	5.402984	-0.171781	8.250004	-0.073893	0.039053	0.050240	1.000000	-0.000059	0.000026	0.000060
51063	NaN	5.400469	-0.164605	8.227528	-0.060520	0.038782	0.030036	1.000000	-0.000032	0.000035	0.000050
51064	NaN	5.398004	-0.157186	8.205027	-0.047696	0.038789	0.009829	1.000000	-0.000037	0.000021	0.000048
51065	NaN	5.416796	-0.171835	8.198484	-0.038408	0.015025	0.015061	1.000000	-0.000030	0.000019	0.000047
51066	NaN	5.431494	-0.154493	8.204261	-0.020655	0.024282	0.027733	1.000000	-0.000037	0.000021	0.000048
51067	NaN	5.373768	-0.114797	8.224701	-0.044709	0.091517	0.012072	1.000000	-0.000030	0.000019	0.000047
51068	NaN	5.396549	-0.161490	8.205900	-0.048820	0.036943	0.009831	1.000000	-0.000031	0.000032	0.000066
51069	NaN	5.400817	-0.071708	8.213734	0.005248	0.109359	0.017237	1.000000	-0.000030	0.000042	0.000051
51070	NaN	5.374157	-0.126543	8.248482	-0.060491	0.090914	0.032266	1.000000	-0.000030	0.000020	0.000039
51071	NaN	5.352576	-0.105623	8.232733	-0.053109	0.112497	0.006867	1.000000	-0.000046	0.000037	0.000068
51072	NaN	5.365091	-0.080267	8.215879	-0.021510	0.121383	-0.000648	1.000000	-0.000066	0.000030	0.000053
51073	NaN	5.338375	-0.135806	8.250614	-0.087729	0.103592	0.014362	1.000000	-0.000063	0.000036	0.000062
51074	NaN	5.378995	-0.065262	8.222189	-0.004764	0.130189	0.012040	1.000000	-0.000063	0.000036	0.000062
51075	NaN	5.407527	-0.153244	8.213972	-0.034427	0.043681	0.022508	1.000000	-0.000075	0.000046	0.000073
51076	NaN	5.370821	-0.151522	8.192670	-0.047681	0.057114	-0.015597	1.000000	-0.000075	0.000021	0.000077
51077	NaN	5.402264	-0.125332	8.227041	-0.023832	0.074616	0.029987	1.000000	-0.000073	0.000053	0.000074
51078	NaN	5.371315	-0.163990	8.216335	-0.062502	0.056859	0.004590	1.000000	-0.000068	0.000045	0.000064
51079	NaN	5.383652	-0.124109	8.257461	-0.045435	0.096923	0.044965	1.000000	-0.000073	0.000028	0.000078
51080	NaN	5.387274	-0.157996	8.245344	-0.058251	0.065301	0.037476	1.000000	-0.000069	0.000021	0.000060
51081	NaN	5.348512	-0.132542	8.259160	-0.072419	0.110548	0.027049	1.000000	-0.000061	0.000041	0.000071
51082	NaN	5.334759	-0.161182	8.276693	-0.106002	0.102275	0.034524	1.000000	-0.000056	0.000032	0.000068
51083	NaN	5.362399	-0.117498	8.265500	-0.054973	0.118871	0.039747	1.000000	-0.000056	0.000033	0.000061
51084	NaN	5.372048	-0.206557	8.205894	-0.078729	0.024009	-0.002923	1.000000	-0.000066	0.000027	0.000069
51085	NaN	5.420508	-0.170190	8.268720	-0.048931	0.049927	0.075575	1.000000	-0.000044	0.000047	0.000053
51086	NaN	5.351608	-0.181118	8.271270	-0.101292	0.078725	0.039722	1.000000	-0.000054	0.000015	0.000065
51087	NaN	5.356354	-0.106209	8.221283	-0.028708	0.116138	-0.000603	1.000000	-0.000012	0.000045	0.000050
51088	NaN	5.363630	-0.156305	8.254822	-0.069605	0.086124	0.032249	1.000000	-0.000034	0.000027	0.000057
51089	NaN	5.397248	-0.152835	8.254058	-0.044091	0.070951	0.050180	1.000000	-0.000047	0.000040	0.000052
51090	NaN	5.436832	-0.204729	8.205837	-0.031180	-0.007025	0.032911	1.000000	-0.000037	0.000045	0.000052
51091	NaN	5.462576	-0.152039	8.171947	0.033390	0.007321	0.017999	1.000000	-0.000045	0.000025	0.000042
51092	NaN	5.470012	-0.217124	8.147523	0.006697	-0.055026	0.002976	1.000000	-0.000037	0.000046	0.000044
51093	NaN	5.446189	-0.172629	8.167120	0.011171	-0.000973	0.005281	1.000000	-0.000040	0.000039	0.000043
51094	NaN	5.447588	-0.182456	8.190207	-0.003454	-0.000143	0.025452	1.000000	-0.000044	0.000022	0.000057
51095	NaN	5.374791	-0.161165	8.205042	-0.041618	0.060538	-0.002913	1.000000	-0.000034	0.000027	0.000057
51096	NaN	5.376034	-0.156086	8.286050	-0.070411	0.094397	0.065109	1.000000	-0.000035	0.000029	0.000041
51097	NaN	5.356618	-0.158205	8.235162	-0.062615	0.084246	0.012040	1.000000	-0.000035	0.000031	0.000033
51098	NaN	5.358080	-0.167695	8.258202	-0.077231	0.085257	0.032200	1.000000	-0.000030	0.000021	0.000031
51099	NaN	5.374877	-0.173594	8.228924	-0.057703	0.060508	0.017248	1.000000	-0.000038	0.000025	0.000025
51100	NaN	5.380540	-0.215077	8.239412	-0.085977	0.030808	0.029875	1.000000	-0.000028	0.000002	0.000044
51101	NaN	5.387660	-0.148279	8.212060	-0.025770	0.066321	0.009825	1.000000	-0.000016	0.000018	0.000021
51102	NaN	5.324867	-0.198730	8.224759	-0.104197	0.068192	-0.013460	1.000000	-0.000016	0.000018	0.000021
51103	NaN	5.320371	-0.152179	8.295322	-0.105047	0.132628	0.041917	1.000000	0.000015	0.000018	0.000010
51104	NaN	5.322031	-0.160797	8.318241	-0.119654	0.133911	0.062066	1.000000	0.000006	0.000010	0.000026
51105	NaN	5.298982	-0.130011	8.279555	-0.097809	0.154142	0.016545	1.000000	0.000013	0.000009	0.000017
51106	NaN	5.331091	-0.116707	8.255831	-0.060168	0.136831	0.014345	1.000000	0.000005	0.000013	0.000010
51107	NaN	5.348193	-0.121936	8.226376	-0.041364	0.111765	-0.000598	1.000000	-0.000006	-0.000002	0.000025
51108	NaN	5.363050	-0.089167	8.290022	-0.035840	0.152339	0.060014	1.000000	-0.000004	0.000007	0.000018
51109	NaN	5.353772	-0.163081	8.236917	-0.070450	0.082255	0.012003	1.000000	-0.000007	0.000025	0.000013
51110	NaN	5.313468	-0.127416	8.227783	-0.067800	0.127321	-0.018567	1.000000	0.000003	0.000003	0.000025
51111	NaN	5.320924	-0.162246	8.318921	-0.122040	0.132851	0.062051	1.000000	-0.000018	0.000010	0.000028
51112	NaN	5.316940	-0.145448	8.273506	-0.095554	0.129651	0.021741	1.000000	-0.000002	0.000014	0.000019
51113	NaN	5.314798	-0.137134	8.250895	-0.081847	0.127782	0.001595	1.000000	-0.000009	0.000016	0.000020
51114	NaN	5.335564	-0.159765	8.267050	-0.091627	0.106073	0.026938	1.000000	-0.000011	0.000009	0.000019
51115	NaN	5.350761	-0.156523	8.214839	-0.060546	0.079516	-0.008162	1.000000	-0.000015	0.000005	0.000002
51116	NaN	5.369465	-0.155518	8.266162	-0.069133	0.089775	0.044895	1.000000	0.000016	0.000016	0.000018
51117	NaN	5.371551	-0.178848	8.230983	-0.069834	0.056650	0.017193	1.000000	0.000013	-0.000016	0.000021
51118	NaN	5.388536	-0.169173	8.259430	-0.064704	0.065121	0.050106	1.000000	-0.000002	0.000017	0.000003
51119	NaN	5.441805	-0.192775	8.193815	-0.024834	-0.009167	0.025417	1.000000	0.000020	0.000010	-0.000000
51120	NaN	5.470010	-0.147281	8.182481	0.027408	0.002025	0.030835	1.000000	0.000010	0.000005	-0.000000
51121	NaN	5.422448	-0.178662	8.200745	-0.031536	0.014248	0.020211	1.000000	0.000012	0.000014	-0.000007
51122	NaN	5.448758	-0.124522	8.166647	0.034413	0.023296	0.005503	1.000000	0.000017	0.000003	-0.000001
51123	NaN	5.437419	-0.159694	8.206521	-0.012518	0.019417	0.032996	1.000000	0.000014	-0.000002	-0.000018
51124	NaN	5.435230	-0.136123	8.241766	-0.011490	0.051280	0.060722	1.000000	0.000005	0.000013	0.000010
51125	NaN	5.450460	-0.132507	8.189548	0.019126	0.023200	0.025649	1.000000	0.000007	-0.000002	-0.000001
51126	NaN	5.435187	-0.150676	8.183990	-0.001608	0.016918	0.012859	1.000000	0.000007	0.000023	-0.000005
51127	NaN	5.469055	-0.145950	8.183143	0.021763	-0.001315	0.030850	1.000000	-0.000002	0.000017	0.000003
51128	NaN	5.413462	-0.113838	8.226259	-0.004679	0.071403	0.035396	1.000000	-0.000011	0.000009	0.000019
51129	NaN	5.385032	-0.159456	8.237741	-0.058497	0.060793	0.029937	1.000000	-0.000014	0.000003	0.000010
51130	NaN	5.380895	-0.127732	8.250249	-0.043369	0.090420	0.037536	1.000000	-0.000002	0.000015	0.000011
51131	NaN	5.350471	-0.164605	8.239032	-0.083184	0.077663	0.011941	1.000000	-0.000012	0.000010	0.000011
51132	NaN	5.355968	-0.190709	8.307428	-0.124972	0.084490	0.072320	1.000000	-0.000004	0.000007	0.000018
51133	NaN	5.361184	-0.114563	8.257383	-0.048509	0.112977	0.032346	1.000000	0.000007	0.000026	-0.000021
51134	NaN	5.368958	-0.178272	8.232687	-0.082020	0.054058	0.017113	1.000000	0.000007	-0.000002	-0.000001
51135	NaN	5.397179	-0.132888	8.221347	-0.029665	0.063488	0.022598	1.000000	0.000005	0.000016	-0.000006
51136	NaN	5.421918	-0.186733	8.225119	-0.057017	0.012871	0.040293	1.000000	0.000026	0.000010	-0.000017
51137	NaN	5.387542	-0.190850	8.226307	-0.082338	0.031306	0.022271	1.000000	0.000019	0.000013	-0.000016
51138	NaN	5.451988	-0.163679	8.178790	-0.009154	-0.009221	0.018050	1.000000	0.000044	0.000010	-0.000003
51139	NaN	5.463663	-0.244131	8.199575	-0.070798	-0.063062	0.043035	1.000000	0.000021	-0.000003	-0.000027
51140	NaN	5.543562	-0.198370	8.157505	0.022216	-0.098163	0.051652	1.000000	0.000058	-0.000017	-0.000017
51141	NaN	5.517620	-0.265673	8.133614	-0.035173	-0.139726	0.018367	1.000000	0.000064	-0.000015	-0.000042
51142	NaN	5.544109	-0.195314	8.157207	0.020626	-0.099264	0.051644	1.000000	0.000078	-0.000017	-0.000060
51143	NaN	5.571486	-0.270762	8.125559	-0.011311	-0.181367	0.041573	1.000000	0.000103	-0.000016	-0.000062
51144	NaN	5.569976	-0.259762	8.102604	0.001356	-0.183906	0.021461	1.000000	0.000108	-0.000026	-0.000064
51145	NaN	5.583659	-0.230212	8.085234	0.033381	-0.181379	0.014176	1.000000	0.000122	-0.000029	-0.000075
51146	NaN	5.559036	-0.173134	8.081360	0.059800	-0.131192	-0.003485	1.000000	0.000127	-0.000013	-0.000081
51147	NaN	5.570408	-0.119871	8.099220	0.095267	-0.096826	0.016999	1.000000	0.000124	-0.000020	-0.000082
51148	NaN	5.536677	-0.121733	8.100023	0.071215	-0.078582	-0.001024	1.000000	0.000130	-0.000034	-0.000060
51149	NaN	5.515870	-0.081879	8.141618	0.070634	-0.023657	0.021535	1.000000	0.000127	-0.000016	-0.000065
51150	NaN	5.495128	-0.057075	8.125385	0.080266	-0.002638	-0.003757	1.000000	0.000103	-0.000015	-0.000070
51151	NaN	5.531393	-0.058805	8.146988	0.088115	-0.018111	0.034398	1.000000	0.000084	-0.000007	-0.000034
51152	NaN	5.493508	-0.044800	8.102427	0.091332	-0.005166	-0.023837	1.000000	0.000077	-0.000006	-0.000025
51153	NaN	5.439975	-0.019498	8.168137	0.054807	0.070507	0.000782	1.000000	0.000065	0.000008	-0.000030
51154	NaN	5.373267	-0.021293	8.251016	-0.015786	0.144385	0.032648	1.000000	0.000053	-0.000006	-0.000023
51155	NaN	5.232209	0.007766	8.325610	-0.101195	0.281166	0.015972	1.000000	0.000043	0.000013	-0.000019
51156	NaN	5.157442	0.054499	8.375338	-0.127271	0.378667	0.015277	1.000000	0.000029	0.000015	-0.000001
51157	NaN	5.113778	0.006109	8.439264	-0.211528	0.400332	0.044641	1.000000	0.000018	-0.000002	0.000022
51158	NaN	5.107718	0.046646	8.428852	-0.181596	0.426538	0.032189	1.000000	-0.000002	0.000017	0.000003
51159	NaN	5.087263	-0.062510	8.415970	-0.270647	0.361048	0.011217	1.000000	0.000023	0.000016	0.000009
51160	NaN	5.096205	-0.003337	8.411216	-0.220611	0.392464	0.011628	1.000000	0.000020	0.000008	0.000008
51161	NaN	5.155643	-0.067372	8.356048	-0.216678	0.290059	-0.000570	1.000000	0.000022	-0.000005	-0.000011
51162	NaN	5.187624	-0.038572	8.390116	-0.190985	0.303309	0.045228	1.000000	0.000036	0.000014	-0.000010
51163	NaN	5.222111	-0.048035	8.331097	-0.159801	0.250845	0.015408	1.000000	0.000030	-0.000022	-0.000031
51164	NaN	5.271949	-0.038996	8.277512	-0.107854	0.203083	-0.001505	1.000000	0.000059	-0.000020	-0.000001
51165	NaN	5.287206	-0.019603	8.283005	-0.089968	0.209153	0.011327	1.000000	0.000045	-0.000002	-0.000030
51166	NaN	5.315630	0.026607	8.271297	-0.037103	0.216755	0.016994	1.000000	0.000041	-0.000019	-0.000016
51167	NaN	5.285640	-0.009283	8.259991	-0.079601	0.207325	-0.008799	1.000000	0.000049	0.000001	-0.000005
51168	NaN	5.289477	-0.025531	8.305579	-0.107718	0.213005	0.031340	1.000000	0.000039	-0.000004	-0.000005
51169	NaN	5.270544	-0.011184	8.312154	-0.110253	0.235689	0.026162	1.000000	0.000034	-0.000017	-0.000014
51170	NaN	5.303102	0.002663	8.288084	-0.074714	0.214380	0.024166	1.000000	0.000027	-0.000016	-0.000005
51171	NaN	5.396796	-0.041539	8.289564	-0.059030	0.128178	0.077919	1.000000	0.000027	-0.000016	-0.000005
51172	NaN	5.378427	-0.057335	8.180286	-0.042967	0.082870	-0.022941	1.000000	0.000034	-0.000019	-0.000007
51173	NaN	5.405757	-0.119392	8.206697	-0.086794	0.036648	0.014696	1.000000	0.000031	-0.000026	-0.000007
51174	NaN	5.478508	-0.141183	8.192013	-0.059507	-0.029265	0.043207	1.000000	0.000051	-0.000016	-0.000008
51175	NaN	5.470954	-0.091322	8.158483	-0.015889	-0.006449	0.010765	1.000000	0.000041	-0.000021	-0.000008
51176	NaN	5.515496	-0.158195	8.155414	-0.042534	-0.079724	0.033547	1.000000	0.000056	-0.000024	-0.000018
51177	NaN	5.540025	-0.079805	8.155827	0.027049	-0.043463	0.046986	1.000000	0.000058	-0.000017	-0.000017
51178	NaN	5.480047	-0.152014	8.133318	-0.054270	-0.063664	-0.004636	1.000000	0.000072	-0.000020	-0.000027
51179	NaN	5.485251	-0.044619	8.198270	0.003267	0.030663	0.051422	1.000000	0.000073	-0.000021	-0.000019
51180	NaN	5.480477	-0.134186	8.190813	-0.066392	-0.028894	0.043164	1.000000	0.000057	-0.000014	-0.000033
51181	NaN	5.482084	-0.025047	8.152212	0.028888	0.024415	0.011314	1.000000	0.000071	-0.000031	-0.000004
51182	NaN	5.481203	-0.131705	8.190368	-0.068012	-0.029284	0.043152	1.000000	0.000050	-0.000010	-0.000040
51183	NaN	5.522688	-0.058195	8.161372	0.018083	-0.019947	0.041791	1.000000	0.000088	-0.000004	-0.000010
51184	NaN	5.509884	-0.098615	8.120678	-0.006871	-0.056569	0.001114	1.000000	0.000075	-0.000013	-0.000026
51185	NaN	5.538302	-0.051969	8.108853	0.046405	-0.050216	0.006901	1.000000	0.000068	-0.000012	-0.000017
51186	NaN	5.517257	-0.013467	8.150446	0.046909	0.005195	0.029459	1.000000	0.000068	-0.000012	-0.000017
51187	NaN	5.515551	-0.003855	8.127481	0.060036	0.001635	0.009413	1.000000	0.000051	-0.000015	-0.000016
51188	NaN	5.477357	0.024307	8.140797	0.054074	0.049114	-0.000996	1.000000	0.000044	0.000010	-0.000003
51189	NaN	5.466224	-0.010507	8.180830	0.005773	0.049853	0.026173	1.000000	0.000028	-0.000021	0.000018
51190	NaN	5.483282	-0.000351	8.209153	0.011334	0.057825	0.059146	1.000000	0.000012	0.000012	0.000001
51191	NaN	5.416903	-0.033285	8.176453	-0.037876	0.062753	-0.004887	1.000000	0.000021	0.000006	0.000023
51192	NaN	5.401551	-0.036577	8.228817	-0.068540	0.092445	0.029989	1.000000	0.000003	0.000004	0.000017
51193	NaN	5.382376	-0.023099	8.235524	-0.071710	0.115798	0.024783	1.000000	0.000003	0.000003	0.000025
51194	NaN	5.363209	-0.009512	8.242226	-0.075115	0.139571	0.019570	1.000000	0.000010	0.000003	0.000008
51195	NaN	5.369129	-0.049965	8.252864	-0.106364	0.112978	0.031891	1.000000	0.000010	0.000002	0.000016
51196	NaN	5.384215	-0.031225	8.258401	-0.087174	0.117969	0.044818	1.000000	0.000039	-0.000004	-0.000005
51197	NaN	5.367415	-0.040896	8.229911	-0.093875	0.109362	0.011847	1.000000	0.000014	-0.000019	0.000036
51198	NaN	5.397737	-0.003958	8.240880	-0.054573	0.119268	0.037718	1.000000	0.000032	-0.000003	0.000004
51199	NaN	5.438237	-0.054616	8.192413	-0.054927	0.040274	0.020339	1.000000	0.000013	-0.000016	0.000021
51200	NaN	5.419295	-0.040770	8.198968	-0.058294	0.064048	0.015130	1.000000	0.000032	-0.000005	0.000012
51201	NaN	5.434556	-0.022120	8.204385	-0.038389	0.068217	0.028079	1.000000	0.000020	-0.000018	0.000019
51202	NaN	5.379411	0.010600	8.247033	-0.060237	0.142442	0.032505	1.000000	0.000030	-0.000013	0.000019
51203	NaN	5.326399	0.019730	8.254643	-0.086241	0.184885	0.009147	1.000000	0.000010	-0.000020	0.000004
51204	NaN	5.316623	0.092388	8.256084	-0.038158	0.239190	0.004607	1.000000	0.000026	-0.000005	0.000029
51205	NaN	5.322863	0.051704	8.266525	-0.069721	0.212857	0.016901	1.000000	-0.000006	-0.000029	0.000037
51206	NaN	5.317142	0.091598	8.255758	-0.039307	0.238526	0.004618	1.000000	-0.000021	0.000001	0.000035
51207	NaN	5.309947	0.023725	8.283666	-0.104521	0.210256	0.023984	1.000000	-0.000006	-0.000002	0.000025
51208	NaN	5.331010	0.001028	8.299801	-0.116647	0.189573	0.049200	1.000000	-0.000031	-0.000002	0.000027
51209	NaN	5.399664	-0.005528	8.239617	-0.062544	0.116727	0.037701	1.000000	-0.000033	-0.000011	0.000034
51210	NaN	5.434173	-0.016820	8.180533	-0.031363	0.063303	0.008038	1.000000	-0.000023	-0.000007	0.000042
51211	NaN	5.426951	-0.084954	8.208427	-0.096689	0.035181	0.027368	1.000000	-0.000018	0.000007	0.000044
51212	NaN	5.432153	0.005048	8.215514	-0.028405	0.094251	0.035830	1.000000	-0.000043	-0.000016	0.000035
51213	NaN	5.378937	0.013227	8.223273	-0.054283	0.136666	0.012471	1.000000	-0.000011	0.000008	0.000027
51214	NaN	5.363608	0.009384	8.275635	-0.084856	0.166472	0.047313	1.000000	-0.000021	0.000001	0.000035
51215	NaN	5.374807	0.043682	8.235571	-0.038271	0.165000	0.020237	1.000000	-0.000042	0.000005	0.000054
51216	NaN	5.395797	0.020261	8.251739	-0.050449	0.144323	0.045449	1.000000	-0.000044	-0.000002	0.000053
51217	NaN	5.472057	-0.035728	8.225117	-0.041305	0.048744	0.066238	1.000000	-0.000047	0.000016	0.000048
51218	NaN	5.468010	-0.020219	8.179618	-0.014940	0.042728	0.026197	1.000000	-0.000056	0.000010	0.000057
51219	NaN	5.488949	-0.058950	8.138048	-0.016971	-0.013324	0.003594	1.000000	-0.000054	0.000018	0.000050
51220	NaN	5.524618	-0.064236	8.160020	-0.009088	-0.029172	0.041780	1.000000	-0.000056	0.000034	0.000060
51221	NaN	5.580988	0.009443	8.078994	0.107300	-0.051055	0.005843	1.000000	-0.000064	0.000012	0.000058
51222	NaN	5.541145	-0.072836	8.130941	0.005104	-0.056263	0.026957	1.000000	-0.000068	0.000020	0.000068
51223	NaN	5.498554	-0.015266	8.156826	0.017629	0.019335	0.024358	1.000000	-0.000074	0.000032	0.000054
51224	NaN	5.501975	-0.049266	8.144950	-0.001118	-0.009152	0.016569	1.000000	-0.000088	0.000036	0.000064
51225	NaN	5.512539	-0.000953	8.163146	0.036852	0.023217	0.037345	1.000000	-0.000081	0.000033	0.000063
51226	NaN	5.502610	-0.061977	8.168586	-0.015690	-0.006929	0.036579	1.000000	-0.000090	0.000051	0.000075
51227	NaN	5.503911	-0.087710	8.134017	-0.020550	-0.038937	0.008770	1.000000	-0.000085	0.000043	0.000065
51228	NaN	5.482283	-0.067746	8.118315	-0.010073	-0.018232	-0.016432	1.000000	-0.000095	0.000037	0.000073
51229	NaN	5.485552	-0.086987	8.164251	-0.038037	-0.012438	0.023584	1.000000	-0.000083	0.000025	0.000070
51230	NaN	5.463847	-0.051789	8.206374	-0.036955	0.042925	0.046200	1.000000	-0.000078	0.000042	0.000056
51231	NaN	5.450194	-0.095520	8.166080	-0.060874	0.005515	0.005401	1.000000	-0.000073	0.000031	0.000062
51232	NaN	5.424524	-0.028049	8.220507	-0.041841	0.089345	0.035828	1.000000	-0.000064	0.000037	0.000054
51233	NaN	5.444964	-0.066884	8.179185	-0.044196	0.033432	0.013202	1.000000	-0.000069	0.000048	0.000048
51234	NaN	5.442165	-0.045092	8.214751	-0.040834	0.065033	0.041014	1.000000	-0.000071	0.000040	0.000055
51235	NaN	5.460559	-0.060405	8.208503	-0.038755	0.040518	0.046203	1.000000	-0.000054	0.000042	0.000054
51236	NaN	5.439069	-0.039867	8.192746	-0.028227	0.061211	0.021010	1.000000	-0.000076	0.000024	0.000061
51237	NaN	5.453678	-0.023529	8.198701	-0.009130	0.065795	0.034010	1.000000	-0.000078	0.000039	0.000072
51238	NaN	5.405529	-0.056722	8.217391	-0.066133	0.083292	0.022818	1.000000	-0.000054	0.000044	0.000046
51239	NaN	5.418161	-0.031562	8.200630	-0.032887	0.084519	0.015821	1.000000	-0.000081	0.000033	0.000063
51240	NaN	5.457543	-0.069501	8.210437	-0.043112	0.040159	0.046187	1.000000	-0.000078	0.000041	0.000064
51241	NaN	5.390299	-0.089089	8.235792	-0.101708	0.080978	0.029803	1.000000	-0.000061	0.000043	0.000063
51242	NaN	5.408779	-0.104439	8.229464	-0.100470	0.057262	0.034977	1.000000	-0.000059	0.000026	0.000060
51243	NaN	5.389228	-0.092329	8.236457	-0.102857	0.080497	0.029795	1.000000	-0.000067	0.000032	0.000045
51244	NaN	5.354413	-0.098126	8.237893	-0.126023	0.099665	0.011590	1.000000	-0.000023	0.000042	0.000042
51245	NaN	5.336703	-0.093925	8.267685	-0.142128	0.126031	0.026406	1.000000	-0.000030	0.000017	0.000055
51246	NaN	5.313539	-0.049059	8.286828	-0.127140	0.178237	0.029044	1.000000	-0.000011	0.000005	0.000043
51247	NaN	5.307504	-0.009139	8.276551	-0.095947	0.203099	0.016887	1.000000	-0.000010	0.000028	0.000047
51248	NaN	5.327980	-0.032055	8.292921	-0.108395	0.182527	0.042051	1.000000	-0.000013	0.000023	0.000038
51249	NaN	5.337042	0.026106	8.288335	-0.057523	0.212375	0.042909	1.000000	-0.000023	0.000018	0.000038
51250	NaN	5.344593	-0.038670	8.263824	-0.094530	0.155681	0.027220	1.000000	-0.000015	0.000014	0.000045
51251	NaN	5.338585	0.001143	8.253546	-0.063634	0.180827	0.015067	1.000000	-0.000023	0.000018	0.000038
51252	NaN	5.395458	-0.041011	8.233662	-0.058390	0.109560	0.030606	1.000000	-0.000047	0.000018	0.000041
51253	NaN	5.412013	-0.032328	8.262383	-0.052135	0.116721	0.063626	1.000000	-0.000025	0.000034	0.000041
51254	NaN	5.428862	-0.038535	8.233144	-0.037359	0.089802	0.048815	1.000000	-0.000050	0.000010	0.000040
51255	NaN	5.447866	-0.068167	8.168709	-0.025980	0.030484	0.006177	1.000000	-0.000020	0.000024	0.000047
51256	NaN	5.462595	-0.050855	8.174648	-0.006750	0.035059	0.019206	1.000000	-0.000035	0.000028	0.000049
51257	NaN	5.481169	-0.065643	8.168269	-0.005031	0.010672	0.024385	1.000000	-0.000035	0.000030	0.000041
51258	NaN	5.465590	-0.085002	8.162876	-0.026085	0.006185	0.011350	1.000000	-0.000037	0.000021	0.000048
51259	NaN	5.516539	-0.086771	8.132690	0.010535	-0.040122	0.014757	1.000000	-0.000039	0.000038	0.000051
51260	NaN	5.514019	-0.064559	8.168133	0.014130	-0.008580	0.042600	1.000000	-0.000047	0.000018	0.000041
51261	NaN	5.484930	-0.110788	8.179952	-0.039520	-0.015335	0.036503	1.000000	-0.000045	0.000053	0.000022
51262	NaN	5.495872	-0.076554	8.140442	0.007018	-0.017249	0.009579	1.000000	-0.000054	0.000018	0.000050
51263	NaN	5.516276	-0.100081	8.156830	-0.005505	-0.038063	0.034734	1.000000	-0.000032	0.000037	0.000042
51264	NaN	5.532988	-0.106275	8.127696	0.009179	-0.065038	0.019931	1.000000	-0.000045	0.000026	0.000034
51265	NaN	5.498266	-0.111964	8.129036	-0.013268	-0.046288	0.001708	1.000000	-0.000050	0.000036	0.000036
51266	NaN	5.495708	-0.089645	8.164510	-0.009619	-0.014759	0.029556	1.000000	-0.000038	0.000024	0.000032
51267	NaN	5.480054	-0.108892	8.159137	-0.029374	-0.020210	0.016508	1.000000	-0.000043	0.000035	0.000027
51268	NaN	5.441432	-0.082283	8.172867	-0.034102	0.027394	0.006161	1.000000	-0.000028	0.000030	0.000024
51269	NaN	5.442729	-0.091714	8.195973	-0.047719	0.029947	0.026140	1.000000	-0.000035	0.000031	0.000033
51270	NaN	5.474374	-0.064520	8.230464	-0.021977	0.042115	0.072211	1.000000	-0.000021	0.000029	0.000015
51271	NaN	5.441643	-0.093179	8.196678	-0.048566	0.029278	0.026138	1.000000	-0.000040	0.000042	0.000028
51272	NaN	5.471415	-0.057589	8.208447	-0.009165	0.038149	0.052238	1.000000	-0.000028	0.000027	0.000040
51273	NaN	5.457811	-0.100007	8.167909	-0.034639	0.001970	0.011326	1.000000	-0.000018	0.000034	0.000032
51274	NaN	5.457374	-0.100685	8.168193	-0.035545	0.002007	0.011322	1.000000	-0.000023	0.000019	0.000030
51275	NaN	5.454959	-0.077858	8.203582	-0.031474	0.033158	0.039181	1.000000	-0.000006	0.000022	0.000029
51276	NaN	5.433765	-0.055992	8.187730	-0.020556	0.053697	0.014040	1.000000	-0.000024	0.000022	0.000014
51277	NaN	5.402923	-0.093118	8.176638	-0.060911	0.044306	-0.012076	1.000000	-0.000026	0.000037	0.000025
51278	NaN	5.400387	-0.070327	8.212106	-0.057116	0.075804	0.015781	1.000000	-0.000016	0.000018	0.000021
51279	NaN	5.413136	-0.029212	8.253214	-0.032349	0.111001	0.056713	1.000000	-0.000013	0.000024	0.000030
51280	NaN	5.412960	-0.044474	8.195573	-0.024300	0.076278	0.008876	1.000000	-0.000011	0.000033	0.000023
51281	NaN	5.446672	-0.040589	8.194930	-0.002123	0.056005	0.027111	1.000000	-0.000028	0.000029	0.000032
51282	NaN	5.450065	-0.073283	8.182838	-0.021392	0.027891	0.019208	1.000000	-0.000021	0.000028	0.000023
51283	NaN	5.428782	-0.051628	8.167052	-0.009799	0.047850	-0.005920	1.000000	-0.000028	0.000029	0.000032
51284	NaN	5.409350	-0.038639	8.173993	-0.012475	0.071679	-0.011084	1.000000	-0.000023	0.000019	0.000030
51285	NaN	5.376305	-0.037847	8.255876	-0.057504	0.128936	0.038487	1.000000	-0.000040	0.000017	0.000031
51286	NaN	5.354981	-0.016424	8.240117	-0.046500	0.149447	0.013356	1.000000	-0.000030	0.000045	0.000035
51287	NaN	5.337144	-0.012218	8.269943	-0.061466	0.175712	0.028175	1.000000	-0.000038	0.000024	0.000032
51288	NaN	5.336711	-0.013322	8.270221	-0.062355	0.175749	0.028168	1.000000	-0.000052	0.000028	0.000035
51289	NaN	5.374328	-0.041992	8.257143	-0.059274	0.127850	0.038491	1.000000	-0.000045	0.000026	0.000034
51290	NaN	5.375908	-0.066548	8.222276	-0.064969	0.096455	0.010608	1.000000	-0.000050	0.000034	0.000044
51291	NaN	5.339404	-0.063662	8.200786	-0.073087	0.111838	-0.027579	1.000000	-0.000052	0.000028	0.000035
51292	NaN	5.372870	-0.045557	8.258072	-0.060952	0.127129	0.038490	1.000000	-0.000038	0.000024	0.000032
51293	NaN	5.410389	-0.074029	8.245053	-0.057878	0.079072	0.048808	1.000000	-0.000040	0.000042	0.000028
51294	NaN	5.409834	-0.075105	8.245407	-0.058774	0.079107	0.048802	1.000000	-0.000045	0.000025	0.000042
51295	NaN	5.392380	-0.085533	8.217222	-0.065208	0.070769	0.015768	1.000000	-0.000019	0.000036	0.000016
51296	NaN	5.424251	-0.073052	8.193902	-0.030592	0.047906	0.014043	1.000000	-0.000025	0.000036	0.000033
51297	NaN	5.410254	-0.100629	8.211284	-0.064584	0.046490	0.020919	1.000000	-0.000029	0.000032	0.000016
51298	NaN	5.443993	-0.096673	8.210663	-0.043644	0.026963	0.039153	1.000000	-0.000014	0.000027	0.000014
51299	NaN	5.479891	-0.115903	8.174804	-0.026717	-0.024662	0.029505	1.000000	-0.000006	0.000023	0.000021
51300	NaN	5.460368	-0.102556	8.181809	-0.029267	-0.000824	0.024349	1.000000	-0.000019	0.000036	0.000016
51301	NaN	5.442735	-0.097708	8.211485	-0.045062	0.026001	0.039149	1.000000	0.000003	0.000006	0.000009
51302	NaN	5.469265	-0.044096	8.177701	0.021698	0.027709	0.025420	1.000000	-0.000002	0.000039	0.000015
51303	NaN	5.467059	-0.035691	8.155243	0.035482	0.023560	0.005468	1.000000	-0.000009	0.000018	0.000012
51304	NaN	5.487441	-0.058597	8.171591	0.022560	0.003162	0.030575	1.000000	-0.000028	0.000030	0.000024
51305	NaN	5.452711	-0.063682	8.172845	0.000064	0.022512	0.012332	1.000000	-0.000011	0.000031	0.000031
51306	NaN	5.467382	-0.046149	8.178949	0.019344	0.026737	0.025428	1.000000	-0.000036	0.000032	0.000025
51307	NaN	5.484162	-0.052058	8.149846	0.033889	-0.000729	0.010631	1.000000	-0.000028	0.000030	0.000024
51308	NaN	5.439446	-0.101404	8.213619	-0.049922	0.024936	0.039129	1.000000	-0.000028	0.000030	0.000024
51309	NaN	5.429883	-0.044273	8.158111	0.009589	0.042098	-0.012764	1.000000	-0.000025	0.000034	0.000041
51310	NaN	5.431076	-0.053822	8.181228	-0.004958	0.045529	0.007184	1.000000	-0.000035	0.000031	0.000033
51311	NaN	5.455079	-0.109099	8.185252	-0.035731	-0.003444	0.024327	1.000000	-0.000033	0.000040	0.000026
51312	NaN	5.410905	-0.041760	8.188650	-0.007510	0.068782	0.002038	1.000000	-0.000028	0.000029	0.000032
51313	NaN	5.450151	-0.078737	8.198412	-0.018871	0.024401	0.032279	1.000000	-0.000025	0.000036	0.000033
51314	NaN	5.411525	-0.052132	8.212131	-0.022886	0.072059	0.021981	1.000000	-0.000043	0.000033	0.000035
51315	NaN	5.414351	-0.070292	8.258053	-0.050559	0.078436	0.061870	1.000000	-0.000016	0.000041	0.000033
51316	NaN	5.406519	-0.021926	8.225352	-0.005504	0.099596	0.029944	1.000000	-0.000052	0.000028	0.000035
51317	NaN	5.400278	-0.113782	8.217676	-0.076755	0.042363	0.020850	1.000000	-0.000041	0.000020	0.000016
51318	NaN	5.426735	-0.060692	8.184059	-0.009969	0.043852	0.007188	1.000000	-0.000016	0.000044	0.000017
51319	NaN	5.410897	-0.079445	8.178689	-0.030248	0.039182	-0.005923	1.000000	-0.000018	0.000034	0.000032
51320	NaN	5.431046	-0.102550	8.195159	-0.043265	0.018822	0.019158	1.000000	-0.000026	0.000037	0.000025
51321	NaN	5.463042	-0.090139	8.171860	-0.008179	-0.004757	0.017478	1.000000	-0.000021	0.000026	0.000031
51322	NaN	5.424534	-0.063194	8.185500	-0.012103	0.042905	0.007190	1.000000	-0.000021	0.000029	0.000015
51323	NaN	5.410573	-0.090658	8.202765	-0.046204	0.041739	0.014011	1.000000	-0.000021	0.000026	0.000031
51324	NaN	5.400718	-0.018625	8.205270	0.003907	0.094189	0.010025	1.000000	-0.000019	0.000036	0.000016
51325	NaN	5.409578	-0.091646	8.203410	-0.047459	0.041332	0.014006	1.000000	-0.000017	0.000021	0.000005
51326	NaN	5.458555	-0.069619	8.208637	-0.006493	0.025754	0.045390	1.000000	-0.000025	0.000034	0.000041
51327	NaN	5.439435	-0.071054	8.157660	0.000310	0.014330	-0.007602	1.000000	-0.000014	0.000028	0.000006
51328	NaN	5.459722	-0.093924	8.174035	-0.012750	-0.006019	0.017473	1.000000	-0.000013	0.000024	0.000030
51329	NaN	5.444092	-0.112584	8.168509	-0.033085	-0.010628	0.004346	1.000000	-0.000014	0.000027	0.000014
51330	NaN	5.424686	-0.099142	8.175425	-0.035450	0.013220	-0.000797	1.000000	0.000001	0.000019	0.000028
51331	NaN	5.439433	-0.081117	8.181534	-0.015638	0.016858	0.012331	1.000000	0.000006	0.000037	0.000014
51332	NaN	5.453764	-0.048471	8.245619	-0.004994	0.055776	0.073312	1.000000	-0.000009	0.000017	0.000012
51333	NaN	5.400530	-0.054090	8.195424	-0.020402	0.064430	0.002049	1.000000	-0.000011	0.000033	0.000023
51334	NaN	5.396336	-0.022451	8.208143	-0.002575	0.092353	0.010042	1.000000	-0.000002	0.000014	0.000019
51335	NaN	5.401470	-0.063576	8.218667	-0.035364	0.067558	0.021976	1.000000	-0.000028	0.000030	0.000024
51336	NaN	5.397271	-0.032258	8.231390	-0.017525	0.095472	0.029971	1.000000	-0.000016	0.000017	0.000029
51337	NaN	5.385171	-0.068421	8.271256	-0.066110	0.098373	0.056678	1.000000	-0.000026	0.000014	0.000021
51338	NaN	5.352827	-0.096672	8.237023	-0.093661	0.086826	0.010466	1.000000	-0.000009	0.000015	0.000028
51339	NaN	5.382892	-0.060707	8.248881	-0.053850	0.094621	0.036749	1.000000	-0.000004	0.000029	0.000030
51340	NaN	5.348301	-0.065485	8.249956	-0.076331	0.114429	0.018461	1.000000	-0.000019	0.000014	0.000004
51341	NaN	5.323572	-0.011313	8.246478	-0.046587	0.162768	0.001399	1.000000	-0.000012	0.000013	-0.000005
51342	NaN	5.328675	-0.052253	8.257004	-0.079898	0.138421	0.013302	1.000000	-0.000011	0.000033	0.000023
51343	NaN	5.396709	-0.043871	8.255601	-0.037037	0.098417	0.049882	1.000000	-0.000017	0.000020	0.000013
51344	NaN	5.396400	-0.044220	8.255801	-0.037919	0.098444	0.049879	1.000000	-0.000009	0.000017	0.000012
51345	NaN	5.392768	-0.027284	8.210473	-0.010629	0.090877	0.010051	1.000000	-0.000016	0.000017	0.000029
51346	NaN	5.380604	-0.063370	8.250353	-0.059044	0.093863	0.036726	1.000000	-0.000016	0.000018	0.000021
51347	NaN	5.378539	-0.055191	8.227851	-0.046730	0.090518	0.016803	1.000000	-0.000021	0.000029	0.000015
51348	NaN	5.345557	-0.068629	8.251709	-0.082851	0.113859	0.018414	1.000000	0.000001	0.000021	0.000020
51349	NaN	5.373998	-0.023927	8.240810	-0.029791	0.118277	0.024818	1.000000	-0.000016	0.000018	0.000021
51350	NaN	5.448099	-0.070883	8.191629	-0.011466	0.019493	0.025457	1.000000	-0.000016	0.000018	0.000021
51351	NaN	5.432566	-0.089518	8.186008	-0.032708	0.015398	0.012291	1.000000	-0.000017	0.000020	0.000013
51352	NaN	5.466447	-0.085501	8.185413	-0.012051	-0.004400	0.030593	1.000000	-0.000006	0.000023	0.000021
51353	NaN	5.464420	-0.077081	8.162898	0.000803	-0.008079	0.010686	1.000000	0.000001	0.000021	0.000020
