// Start Time: Unknown
// Update Rate: 100.0Hz
// Filter Profile: human (46.1)
// Firmware Version: 4.3.5
PacketCounter	SampleTimeFine	Acc_X	Acc_Y	Acc_Z	FreeAcc_X	FreeAcc_Y	FreeAcc_Z	OriInc_q0	OriInc_q1	OriInc_q2	OriInc_q3
50181	NaN	4.160531	-0.505100	8.983034	0.000000	0.000000	0.099933	1.000000	0.000034	0.000092	0.000058
50182	NaN	4.159323	-0.450353	8.982889	-0.000000	0.000000	0.096656	1.000000	0.000045	0.000063	0.000073
50183	NaN	4.176432	-0.438798	9.010449	0.040420	0.000984	0.128222	1.000000	0.000045	0.000084	0.000046
50184	NaN	4.152230	-0.428649	8.934050	0.047427	-0.010176	0.048329	1.000000	0.000042	0.000070	0.000070
50185	NaN	4.149191	-0.416978	8.975314	0.059060	0.009579	0.083895	1.000000	0.000033	0.000073	0.000064
50186	NaN	4.153997	-0.395036	8.984672	0.081574	0.009532	0.093337	1.000000	0.000022	0.000083	0.000055
50187	NaN	4.178898	-0.373686	8.980339	0.105664	-0.014556	0.098818	1.000000	0.000009	0.000083	0.000078
50188	NaN	4.151161	-0.395936	8.985943	0.081539	0.009528	0.093337	1.000000	-0.000005	0.000055	0.000081
50189	NaN	4.176121	-0.429568	8.982284	0.051219	-0.018740	0.102098	1.000000	0.000005	0.000071	0.000080
50190	NaN	4.152806	-0.418376	9.037250	0.061207	0.025010	0.141626	1.000000	-0.000013	0.000076	0.000069
50191	NaN	4.147110	-0.398110	8.987717	0.081249	0.009520	0.093340	1.000000	-0.000010	0.000081	0.000079
50192	NaN	4.177988	-0.409993	8.992908	0.073557	-0.018793	0.111541	1.000000	-0.000010	0.000081	0.000079
50193	NaN	4.137823	-0.421743	8.980338	0.058446	0.009568	0.083899	1.000000	-0.000006	0.000078	0.000092
50194	NaN	4.168750	-0.433769	8.985506	0.050753	-0.018745	0.102100	1.000000	-0.000021	0.000077	0.000085
50195	NaN	4.187614	-0.435167	8.972378	0.051984	-0.042771	0.098141	1.000000	-0.000021	0.000065	0.000079
50196	NaN	4.186135	-0.435993	8.973028	0.051984	-0.042771	0.098141	1.000000	-0.000002	0.000093	0.000069
50197	NaN	4.206664	-0.448747	8.919328	0.041523	-0.086424	0.058615	1.000000	-0.000011	0.000059	0.000106
50198	NaN	4.177113	-0.459865	8.965509	0.028993	-0.042627	0.088699	1.000000	-0.000021	0.000077	0.000085
50199	NaN	4.195841	-0.461111	8.952469	0.030059	-0.066419	0.084741	1.000000	-0.000006	0.000081	0.000071
50200	NaN	4.186334	-0.472185	8.985045	0.019139	-0.046658	0.110863	1.000000	-0.000004	0.000074	0.000075
50201	NaN	4.198796	-0.494990	8.963316	-0.002352	-0.070268	0.097459	1.000000	0.000013	0.000083	0.000070
50202	NaN	4.162751	-0.526894	9.000907	-0.037398	-0.026423	0.118090	1.000000	0.000053	0.000074	0.000063
50203	NaN	4.142474	-0.591756	8.975502	-0.105452	-0.025786	0.089743	1.000000	0.000100	0.000078	0.000047
50204	NaN	4.121472	-0.709997	8.951196	-0.227320	-0.029832	0.064659	1.000000	0.000161	0.000112	0.000006
50205	NaN	4.118231	-0.640135	8.992089	-0.161401	-0.005378	0.096964	1.000000	0.000260	0.000094	0.000013
50206	NaN	4.085760	-0.690459	8.948786	-0.219625	-0.000970	0.046456	1.000000	0.000264	0.000073	-0.000028
50207	NaN	4.136258	-0.520966	8.978672	-0.050549	-0.020520	0.086485	1.000000	0.000326	0.000104	-0.000047
50208	NaN	4.155641	-0.405979	8.964195	0.059729	-0.036194	0.075997	1.000000	0.000320	0.000088	-0.000055
50209	NaN	4.148307	-0.367152	8.955498	0.092087	-0.031339	0.063280	1.000000	0.000323	0.000081	-0.000051
50210	NaN	4.178237	-0.251394	8.999550	0.204649	-0.031558	0.110512	1.000000	0.000299	0.000079	-0.000043
50211	NaN	4.156926	-0.191222	9.012942	0.257359	-0.002688	0.111197	1.000000	0.000240	0.000086	-0.000035
50212	NaN	4.147804	-0.142641	9.044541	0.300772	0.021264	0.134042	1.000000	0.000197	0.000071	-0.000032
50213	NaN	4.121827	-0.173038	9.009655	0.264125	0.026205	0.093010	1.000000	0.000117	0.000078	0.000015
50214	NaN	4.131166	-0.115725	9.068062	0.320737	0.045848	0.147469	1.000000	0.000092	0.000066	0.000056
50215	NaN	4.104847	-0.203124	9.034244	0.228846	0.046488	0.109715	1.000000	0.000025	0.000073	0.000080
50216	NaN	4.103589	-0.203750	9.034802	0.228846	0.046489	0.109715	1.000000	-0.000016	0.000062	0.000092
50217	NaN	4.128041	-0.292749	9.032564	0.141907	0.014275	0.121763	1.000000	-0.000046	0.000068	0.000105
50218	NaN	4.146914	-0.295031	9.019513	0.143523	-0.009763	0.117814	1.000000	-0.000062	0.000078	0.000103
50219	NaN	4.172956	-0.396553	8.976777	0.044470	-0.061662	0.094258	1.000000	-0.000071	0.000078	0.000119
50220	NaN	4.199660	-0.443526	8.932803	0.002691	-0.109653	0.067434	1.000000	-0.000061	0.000052	0.000113
50221	NaN	4.257277	-0.434952	8.933042	0.016213	-0.161483	0.091175	1.000000	-0.000043	0.000080	0.000103
50222	NaN	4.282414	-0.415054	8.928645	0.040326	-0.185561	0.096701	1.000000	-0.000042	0.000068	0.000097
50223	NaN	4.295160	-0.439046	8.906929	0.016655	-0.208488	0.083312	1.000000	-0.000040	0.000061	0.000101
50224	NaN	4.267760	-0.407251	8.911404	0.046872	-0.180226	0.074581	1.000000	-0.000015	0.000082	0.000086
50225	NaN	4.237900	-0.417907	8.957581	0.031932	-0.134851	0.104646	1.000000	-0.000005	0.000067	0.000086
50226	NaN	4.204797	-0.353074	8.952314	0.093999	-0.102372	0.083251	1.000000	-0.000014	0.000070	0.000081
50227	NaN	4.195279	-0.364281	8.984834	0.080636	-0.080752	0.109374	1.000000	-0.000018	0.000070	0.000088
50228	NaN	4.126758	-0.385789	9.017600	0.053292	-0.008584	0.111685	1.000000	-0.000006	0.000079	0.000092
50229	NaN	4.160215	-0.355067	8.981273	0.086043	-0.050657	0.091189	1.000000	-0.000016	0.000062	0.000092
50230	NaN	4.184919	-0.389243	8.977969	0.055821	-0.078902	0.099913	1.000000	-0.000021	0.000077	0.000085
50231	NaN	4.163152	-0.389724	8.992206	0.051359	-0.052837	0.103868	1.000000	-0.000010	0.000082	0.000078
50232	NaN	4.188273	-0.369238	8.987900	0.075471	-0.076905	0.109445	1.000000	-0.000016	0.000074	0.000098
50233	NaN	4.183076	-0.349532	8.938216	0.093669	-0.090606	0.061269	1.000000	-0.000020	0.000075	0.000106
50234	NaN	4.165734	-0.316736	9.001628	0.126047	-0.046815	0.110260	1.000000	-0.000034	0.000077	0.000108
50235	NaN	4.196442	-0.329662	9.007095	0.115492	-0.073048	0.128534	1.000000	-0.000051	0.000092	0.000124
50236	NaN	4.162539	-0.320521	9.002972	0.123248	-0.044756	0.110305	1.000000	-0.000062	0.000076	0.000125
50237	NaN	4.148352	-0.366528	8.986298	0.075024	-0.042534	0.091316	1.000000	-0.000069	0.000086	0.000107
50238	NaN	4.173553	-0.347596	8.981948	0.099121	-0.066598	0.096928	1.000000	-0.000093	0.000063	0.000143
50239	NaN	4.118903	-0.393128	8.992285	0.048132	-0.016465	0.085722	1.000000	-0.000084	0.000082	0.000121
50240	NaN	4.108988	-0.405934	9.024828	0.037119	0.003371	0.111762	1.000000	-0.000086	0.000086	0.000139
50241	NaN	4.136084	-0.398868	8.979928	0.046744	-0.038613	0.081843	1.000000	-0.000087	0.000070	0.000123
50242	NaN	4.187273	-0.413250	8.971713	0.040585	-0.090914	0.096185	1.000000	-0.000085	0.000074	0.000133
50243	NaN	4.186007	-0.415787	8.972187	0.037620	-0.088886	0.096216	1.000000	-0.000078	0.000055	0.000123
50244	NaN	4.226165	-0.364643	8.944549	0.095191	-0.132806	0.085377	1.000000	-0.000074	0.000067	0.000121
50245	NaN	4.217842	-0.443491	8.937316	0.016198	-0.135152	0.078923	1.000000	-0.000067	0.000057	0.000138
50246	NaN	4.208891	-0.401251	8.968786	0.059500	-0.111142	0.101897	1.000000	-0.000060	0.000086	0.000091
50247	NaN	4.189282	-0.414454	8.942237	0.044028	-0.104746	0.070255	1.000000	-0.000071	0.000048	0.000119
50248	NaN	4.212823	-0.383606	8.978439	0.079528	-0.108984	0.111485	1.000000	-0.000064	0.000071	0.000115
50249	NaN	4.205091	-0.407792	8.970273	0.054267	-0.106680	0.101976	1.000000	-0.000083	0.000070	0.000115
50250	NaN	4.198102	-0.377472	8.961181	0.086116	-0.102484	0.089403	1.000000	-0.000070	0.000079	0.000119
50251	NaN	4.196686	-0.379757	8.961748	0.083848	-0.100168	0.089446	1.000000	-0.000079	0.000070	0.000107
50252	NaN	4.165734	-0.446110	9.008658	0.016795	-0.060382	0.122319	1.000000	-0.000058	0.000078	0.000095
50253	NaN	4.125640	-0.458760	8.995665	-0.000559	-0.029579	0.094506	1.000000	-0.000072	0.000072	0.000130
50254	NaN	4.118649	-0.427919	8.986602	0.031281	-0.025383	0.081946	1.000000	-0.000034	0.000080	0.000087
50255	NaN	4.075663	-0.482845	9.015144	-0.028084	0.020678	0.092654	1.000000	-0.000040	0.000073	0.000106
50256	NaN	4.086184	-0.495112	9.034060	-0.037572	0.016536	0.114779	1.000000	-0.000027	0.000070	0.000104
50257	NaN	4.080355	-0.529644	8.985319	-0.073286	-0.001274	0.069641	1.000000	-0.000001	0.000079	0.000084
50258	NaN	4.089657	-0.474653	9.044039	-0.017027	0.018579	0.124344	1.000000	0.000031	0.000078	0.000081
50259	NaN	4.088291	-0.474652	9.044656	-0.018645	0.020757	0.124337	1.000000	0.000036	0.000066	0.000068
50260	NaN	4.073206	-0.572471	9.028751	-0.117978	0.016761	0.108143	1.000000	0.000077	0.000076	0.000055
50261	NaN	4.088887	-0.550773	8.965622	-0.097602	-0.021217	0.056190	1.000000	0.000106	0.000051	0.000048
50262	NaN	4.097812	-0.548157	9.025132	-0.095736	-0.005446	0.113861	1.000000	0.000127	0.000048	0.000030
50263	NaN	4.099684	-0.502560	8.984246	-0.054523	-0.019095	0.075352	1.000000	0.000192	0.000072	0.000015
50264	NaN	4.097453	-0.432879	9.024560	0.011134	0.004956	0.107950	1.000000	0.000199	0.000052	0.000005
50265	NaN	4.099361	-0.386478	8.983635	0.052720	-0.008804	0.069467	1.000000	0.000194	0.000067	-0.000002
50266	NaN	4.100621	-0.337923	9.074099	0.097840	0.031017	0.150145	1.000000	0.000164	0.000049	-0.000002
50267	NaN	4.108910	-0.149549	9.080202	0.282373	0.044655	0.150939	1.000000	0.000153	0.000054	0.000032
50268	NaN	4.048544	-0.214564	8.950234	0.209439	0.037459	0.010661	1.000000	0.000098	0.000073	0.000037
50269	NaN	4.124803	-0.135438	9.108424	0.293482	0.042097	0.182703	1.000000	0.000058	0.000060	0.000071
50270	NaN	4.167544	-0.214891	9.001910	0.219401	-0.049736	0.106908	1.000000	-0.000007	0.000062	0.000076
50271	NaN	4.224483	-0.260895	9.003586	0.179739	-0.104833	0.133949	1.000000	-0.000041	0.000052	0.000133
50272	NaN	4.304694	-0.265446	8.950208	0.185970	-0.200949	0.118683	1.000000	-0.000072	0.000074	0.000109
50273	NaN	4.309882	-0.366982	8.920968	0.087603	-0.227486	0.098619	1.000000	-0.000098	0.000066	0.000129
50274	NaN	4.349366	-0.371154	8.894511	0.090651	-0.275463	0.090997	1.000000	-0.000104	0.000061	0.000127
50275	NaN	4.328974	-0.439570	8.868836	0.021212	-0.273747	0.062236	1.000000	-0.000085	0.000051	0.000121
50276	NaN	4.345977	-0.431116	8.896445	0.034045	-0.277761	0.093967	1.000000	-0.000083	0.000080	0.000142
50277	NaN	4.317809	-0.454727	8.901748	0.007929	-0.251260	0.088230	1.000000	-0.000068	0.000062	0.000095
50278	NaN	4.309059	-0.412259	8.933143	0.051090	-0.227117	0.111264	1.000000	-0.000055	0.000071	0.000099
50279	NaN	4.274383	-0.456972	8.929778	0.003498	-0.201258	0.095874	1.000000	-0.000029	0.000078	0.000100
50280	NaN	4.274099	-0.403747	8.929375	0.057722	-0.197059	0.092994	1.000000	-0.000029	0.000066	0.000094
50281	NaN	4.304930	-0.416428	8.934940	0.047979	-0.222569	0.111382	1.000000	-0.000021	0.000077	0.000084
50282	NaN	4.298142	-0.384838	8.925878	0.079757	-0.218325	0.098892	1.000000	-0.000016	0.000075	0.000098
50283	NaN	4.271035	-0.352707	8.930233	0.107958	-0.187499	0.090261	1.000000	-0.000031	0.000073	0.000090
50284	NaN	4.254566	-0.385995	8.954006	0.074290	-0.167293	0.106539	1.000000	-0.000014	0.000079	0.000107
50285	NaN	4.246713	-0.409242	8.945881	0.049629	-0.163854	0.096981	1.000000	-0.000037	0.000066	0.000110
50286	NaN	4.213157	-0.399199	8.941479	0.057393	-0.135487	0.078645	1.000000	-0.000034	0.000080	0.000086
50287	NaN	4.164567	-0.421052	8.960187	0.029496	-0.083998	0.076596	1.000000	-0.000024	0.000063	0.000108
50288	NaN	4.131122	-0.410862	8.955719	0.037264	-0.055624	0.058250	1.000000	-0.000027	0.000070	0.000104
50289	NaN	4.078289	-0.409116	9.055563	0.032024	0.035469	0.127170	1.000000	-0.000014	0.000070	0.000080
50290	NaN	4.017885	-0.419750	9.055816	0.015802	0.087976	0.102927	1.000000	-0.000016	0.000075	0.000098
50291	NaN	3.998351	-0.431846	9.029168	0.002542	0.095191	0.071143	1.000000	-0.000022	0.000058	0.000090
50292	NaN	4.008755	-0.443946	9.048142	-0.007164	0.091403	0.093253	1.000000	-0.000027	0.000082	0.000109
50293	NaN	3.993488	-0.422326	9.070853	0.012275	0.118211	0.106614	1.000000	0.000006	0.000060	0.000074
50294	NaN	4.006223	-0.445634	9.049180	-0.008806	0.094486	0.093223	1.000000	-0.000011	0.000060	0.000105
50295	NaN	4.040562	-0.415204	9.013156	0.024781	0.052597	0.073270	1.000000	-0.000007	0.000063	0.000076
50296	NaN	4.071490	-0.427412	9.018704	0.016586	0.024783	0.091647	1.000000	0.000008	0.000064	0.000083
50297	NaN	4.097195	-0.406853	9.014555	0.038003	0.003509	0.097574	1.000000	0.000002	0.000060	0.000082
50298	NaN	4.111214	-0.375479	8.991951	0.071265	-0.016291	0.081397	1.000000	0.000002	0.000060	0.000082
50299	NaN	4.108692	-0.430643	8.993448	0.015848	-0.016609	0.084200	1.000000	0.000006	0.000072	0.000080
50300	NaN	4.073319	-0.408000	9.029444	0.035007	0.031836	0.101293	1.000000	0.000000	0.000041	0.000087
50301	NaN	4.114466	-0.355487	9.002108	0.089577	-0.009297	0.091102	1.000000	0.000011	0.000057	0.000087
50302	NaN	4.113275	-0.355899	9.002636	0.089323	-0.008915	0.091105	1.000000	0.000019	0.000069	0.000077
50303	NaN	4.158083	-0.390724	8.986088	0.059468	-0.057536	0.096160	1.000000	-0.000018	0.000058	0.000082
50304	NaN	4.175161	-0.380720	9.013777	0.072074	-0.061198	0.127944	1.000000	-0.000011	0.000063	0.000084
50305	NaN	4.179110	-0.414301	9.024016	0.037405	-0.062201	0.140413	1.000000	-0.000005	0.000067	0.000086
50306	NaN	4.181516	-0.372334	8.982959	0.080150	-0.078000	0.102188	1.000000	-0.000011	0.000048	0.000099
50307	NaN	4.201007	-0.374132	8.969966	0.079984	-0.099618	0.098539	1.000000	-0.000022	0.000046	0.000084
50308	NaN	4.226856	-0.354134	8.965810	0.103583	-0.123355	0.104546	1.000000	-0.000013	0.000068	0.000101
50309	NaN	4.269531	-0.377885	8.989827	0.083452	-0.152886	0.145141	1.000000	-0.000019	0.000049	0.000115
50310	NaN	4.279302	-0.380703	8.917909	0.082824	-0.192571	0.083904	1.000000	-0.000038	0.000071	0.000067
50311	NaN	4.283279	-0.414852	8.928105	0.049272	-0.193740	0.096383	1.000000	-0.000032	0.000052	0.000117
50312	NaN	4.277008	-0.383563	8.918887	0.080946	-0.189418	0.083980	1.000000	-0.000029	0.000066	0.000094
50313	NaN	4.240151	-0.416213	8.955796	0.046077	-0.142587	0.103761	1.000000	-0.000037	0.000054	0.000104
50314	NaN	4.220790	-0.428562	8.929045	0.032957	-0.138015	0.071970	1.000000	-0.000024	0.000063	0.000107
50315	NaN	4.185306	-0.406505	8.965031	0.050870	-0.087305	0.089010	1.000000	-0.000031	0.000061	0.000084
50316	NaN	4.195625	-0.418625	8.984063	0.040979	-0.090697	0.111122	1.000000	-0.000014	0.000080	0.000107
50317	NaN	4.198005	-0.377066	8.943100	0.082832	-0.104961	0.072988	1.000000	-0.000037	0.000054	0.000104
50318	NaN	4.235386	-0.368395	8.957516	0.096771	-0.132569	0.101160	1.000000	-0.000029	0.000078	0.000100
50319	NaN	4.200666	-0.412811	8.953796	0.045941	-0.105284	0.085457	1.000000	-0.000045	0.000043	0.000113
50320	NaN	4.177876	-0.338131	8.916353	0.119210	-0.093287	0.038578	1.000000	-0.000055	0.000060	0.000092
50321	NaN	4.186083	-0.339451	8.975895	0.118550	-0.074521	0.096177	1.000000	-0.000074	0.000068	0.000120
50322	NaN	4.178241	-0.363711	8.967605	0.095793	-0.073828	0.086469	1.000000	-0.000085	0.000064	0.000126
50323	NaN	4.169795	-0.322108	8.998961	0.137665	-0.047521	0.109562	1.000000	-0.000111	0.000058	0.000124
50324	NaN	4.162103	-0.347184	8.990557	0.114905	-0.046812	0.099848	1.000000	-0.000134	0.000056	0.000132
50325	NaN	4.162439	-0.296540	8.990126	0.166307	-0.039807	0.097255	1.000000	-0.000171	0.000070	0.000149
50326	NaN	4.164057	-0.322384	9.040755	0.145255	-0.022853	0.145070	1.000000	-0.000201	0.000049	0.000170
50327	NaN	4.162401	-0.317796	8.950245	0.152283	-0.056149	0.061882	1.000000	-0.000197	0.000061	0.000168
50328	NaN	4.191640	-0.389440	8.956509	0.089243	-0.087068	0.083020	1.000000	-0.000236	0.000058	0.000169
50329	NaN	4.207126	-0.438759	8.984823	0.044743	-0.091697	0.117522	1.000000	-0.000221	0.000048	0.000171
50330	NaN	4.160811	-0.475916	8.962213	0.007800	-0.062793	0.079537	1.000000	-0.000229	0.000051	0.000165
50331	NaN	4.118905	-0.479614	8.989048	0.001540	-0.011139	0.086719	1.000000	-0.000207	0.000045	0.000168
50332	NaN	4.108959	-0.494934	9.021026	-0.009940	0.009798	0.112392	1.000000	-0.000203	0.000057	0.000166
50333	NaN	4.126361	-0.555097	9.008713	-0.066370	-0.014731	0.111389	1.000000	-0.000184	0.000073	0.000151
50334	NaN	4.151973	-0.538241	9.004717	-0.043075	-0.038318	0.117578	1.000000	-0.000132	0.000073	0.000148
50335	NaN	4.205373	-0.565909	8.956266	-0.064247	-0.108470	0.097117	1.000000	-0.000125	0.000054	0.000138
50336	NaN	4.219719	-0.536953	8.933803	-0.031312	-0.128235	0.081238	1.000000	-0.000089	0.000064	0.000133
50337	NaN	4.245559	-0.518602	8.929850	-0.009787	-0.149476	0.087489	1.000000	-0.000080	0.000064	0.000118
50338	NaN	4.250889	-0.499133	8.939265	0.012077	-0.148937	0.097273	1.000000	-0.000063	0.000072	0.000114
50339	NaN	4.208576	-0.499516	8.966424	0.007302	-0.097892	0.104407	1.000000	-0.000059	0.000072	0.000106
50340	NaN	4.213854	-0.479275	8.975914	0.029154	-0.097341	0.114194	1.000000	-0.000022	0.000073	0.000074
50341	NaN	4.132988	-0.488945	8.988977	0.010347	-0.018498	0.092963	1.000000	-0.000063	0.000060	0.000108
50342	NaN	4.131659	-0.490637	8.989495	0.009826	-0.017768	0.092965	1.000000	-0.000024	0.000075	0.000113
50343	NaN	4.104914	-0.458368	8.993869	0.038693	0.012468	0.084203	1.000000	-0.000035	0.000074	0.000098
50344	NaN	4.108438	-0.492683	9.003893	0.006103	0.009617	0.096499	1.000000	-0.000039	0.000062	0.000100
50345	NaN	4.109091	-0.439648	9.003793	0.058817	0.016093	0.094001	1.000000	-0.000039	0.000062	0.000100
50346	NaN	4.166882	-0.432420	9.005122	0.073613	-0.035341	0.118850	1.000000	-0.000052	0.000077	0.000108
50347	NaN	4.174579	-0.424127	8.973899	0.081289	-0.052636	0.093295	1.000000	-0.000065	0.000053	0.000119
50348	NaN	4.202996	-0.426837	9.020198	0.083649	-0.059547	0.147272	1.000000	-0.000061	0.000077	0.000123
50349	NaN	4.219558	-0.408584	8.957321	0.102722	-0.098023	0.096150	1.000000	-0.000089	0.000067	0.000112
50350	NaN	4.222971	-0.443874	8.967336	0.070052	-0.100796	0.108430	1.000000	-0.000076	0.000076	0.000116
50351	NaN	4.235478	-0.468999	8.945576	0.045646	-0.121377	0.095175	1.000000	-0.000093	0.000052	0.000135
50352	NaN	4.198049	-0.502975	8.982021	0.010294	-0.075852	0.114419	1.000000	-0.000095	0.000072	0.000137
50353	NaN	4.210416	-0.528191	8.960292	-0.012493	-0.096743	0.101137	1.000000	-0.000078	0.000068	0.000127
50354	NaN	4.181991	-0.551330	8.965025	-0.036777	-0.071587	0.094795	1.000000	-0.000065	0.000053	0.000119
50355	NaN	4.160153	-0.552463	8.978795	-0.040612	-0.044824	0.098275	1.000000	-0.000055	0.000084	0.000104
50356	NaN	4.147313	-0.542697	8.960916	-0.031495	-0.040284	0.076202	1.000000	-0.000017	0.000058	0.000082
50357	NaN	4.159667	-0.500583	8.979307	0.010474	-0.037847	0.095886	1.000000	-0.000037	0.000054	0.000103
50358	NaN	4.151666	-0.523565	8.970842	-0.012518	-0.036790	0.086047	1.000000	-0.000015	0.000075	0.000097
50359	NaN	4.131771	-0.469145	8.984225	0.037942	-0.006574	0.087133	1.000000	-0.000011	0.000075	0.000089
50360	NaN	4.144216	-0.492635	8.962547	0.016236	-0.029641	0.073835	1.000000	-0.000006	0.000060	0.000097
50361	NaN	4.202134	-0.484855	8.964001	0.029108	-0.078956	0.098884	1.000000	-0.000009	0.000068	0.000093
50362	NaN	4.239540	-0.476261	8.978721	0.042270	-0.106097	0.127378	1.000000	-0.000015	0.000063	0.000091
50363	NaN	4.167629	-0.474743	8.959905	0.034733	-0.046630	0.080291	1.000000	-0.000011	0.000075	0.000089
50364	NaN	4.184613	-0.465501	8.987820	0.046589	-0.049609	0.112229	1.000000	-0.000034	0.000047	0.000107
50365	NaN	4.167573	-0.488625	8.920213	0.019911	-0.063649	0.044958	1.000000	-0.000015	0.000075	0.000097
50366	NaN	4.147987	-0.510196	8.984168	-0.002916	-0.021749	0.095939	1.000000	-0.000002	0.000072	0.000095
50367	NaN	4.105612	-0.509314	9.011205	-0.006710	0.028861	0.102775	1.000000	-0.000018	0.000071	0.000087
50368	NaN	4.124800	-0.511148	8.998526	-0.006160	0.005640	0.099358	1.000000	0.000000	0.000065	0.000099
50369	NaN	4.146112	-0.458336	8.985407	0.048820	-0.012695	0.093639	1.000000	-0.000002	0.000072	0.000095
50370	NaN	4.165297	-0.460079	8.972754	0.049354	-0.035911	0.090240	1.000000	0.000000	0.000065	0.000099
50371	NaN	4.188987	-0.494740	8.969613	0.016344	-0.061054	0.099040	1.000000	-0.000002	0.000084	0.000101
50372	NaN	4.203527	-0.463880	8.947521	0.048986	-0.080906	0.083474	1.000000	-0.000021	0.000056	0.000111
50373	NaN	4.240884	-0.455550	8.962317	0.058786	-0.106518	0.112077	1.000000	-0.000024	0.000081	0.000070
50374	NaN	4.198570	-0.520668	8.949155	-0.010156	-0.080683	0.085790	1.000000	-0.000011	0.000073	0.000111
50375	NaN	4.204052	-0.500107	8.958705	0.010494	-0.078712	0.095706	1.000000	-0.000011	0.000061	0.000105
50376	NaN	4.150448	-0.488110	8.967159	0.017102	-0.025874	0.080413	1.000000	-0.000019	0.000063	0.000099
50377	NaN	4.151400	-0.510637	9.017798	-0.005750	-0.005357	0.127911	1.000000	0.000000	0.000065	0.000099
50378	NaN	4.111441	-0.520969	9.004075	-0.020206	0.023604	0.099313	1.000000	-0.000009	0.000068	0.000093
50379	NaN	4.126127	-0.489754	8.981970	0.010514	0.005537	0.083798	1.000000	0.000009	0.000064	0.000083
50380	NaN	4.152127	-0.469493	8.978369	0.033257	-0.017889	0.090356	1.000000	0.000022	0.000073	0.000087
50381	NaN	4.141640	-0.480616	9.010582	0.021520	0.004908	0.115770	1.000000	-0.000019	0.000061	0.000120
50382	NaN	4.165504	-0.439468	8.956838	0.065144	-0.035579	0.074880	1.000000	-0.000007	0.000075	0.000081
50383	NaN	4.200543	-0.485467	8.972157	0.021712	-0.063843	0.105745	1.000000	-0.000004	0.000065	0.000106
50384	NaN	4.197108	-0.464937	8.922599	0.041824	-0.079918	0.058306	1.000000	-0.000017	0.000071	0.000087
50385	NaN	4.197878	-0.487521	8.973294	0.018882	-0.060610	0.105771	1.000000	-0.000017	0.000071	0.000087
50386	NaN	4.189765	-0.510273	8.964823	-0.004224	-0.059317	0.095845	1.000000	-0.000019	0.000064	0.000099
50387	NaN	4.190750	-0.456863	8.964950	0.046910	-0.054088	0.093690	1.000000	-0.000015	0.000075	0.000097
50388	NaN	4.157271	-0.521776	9.010785	-0.020629	-0.011243	0.124558	1.000000	-0.000013	0.000068	0.000101
50389	NaN	4.165303	-0.512647	8.979631	-0.011018	-0.028786	0.099194	1.000000	-0.000028	0.000054	0.000087
50390	NaN	4.159575	-0.480898	8.970697	0.020333	-0.024530	0.087096	1.000000	-0.000015	0.000075	0.000097
50391	NaN	4.158228	-0.481775	8.971274	0.018861	-0.022322	0.087104	1.000000	0.000004	0.000065	0.000091
50392	NaN	4.209290	-0.495981	8.963992	0.010461	-0.073092	0.102544	1.000000	-0.000022	0.000071	0.000095
50393	NaN	4.207952	-0.497043	8.964561	0.007953	-0.070542	0.102565	1.000000	-0.000009	0.000068	0.000093
50394	NaN	4.165527	-0.496090	8.991435	0.004803	-0.021160	0.109165	1.000000	-0.000022	0.000071	0.000095
50395	NaN	4.125388	-0.506556	8.977693	-0.010465	0.008650	0.080453	1.000000	-0.000018	0.000083	0.000093
50396	NaN	4.162709	-0.498280	8.992619	0.002218	-0.018223	0.109172	1.000000	-0.000013	0.000056	0.000095
50397	NaN	4.134145	-0.519909	8.997213	-0.023226	0.009149	0.102487	1.000000	-0.000015	0.000063	0.000091
50398	NaN	4.169530	-0.489819	8.962033	0.010391	-0.034953	0.083858	1.000000	0.000006	0.000072	0.000079
50399	NaN	4.145176	-0.478237	9.016423	0.018864	0.012408	0.122431	1.000000	-0.000017	0.000071	0.000087
50400	NaN	4.134987	-0.479290	8.957856	0.016687	-0.003475	0.065102	1.000000	-0.000006	0.000073	0.000103
50401	NaN	4.183542	-0.482245	8.991315	0.018651	-0.032623	0.115904	1.000000	-0.000009	0.000068	0.000093
50402	NaN	4.164163	-0.493611	8.964321	0.005435	-0.027776	0.083885	1.000000	-0.000019	0.000064	0.000099
50403	NaN	4.190284	-0.474209	8.960775	0.028019	-0.049841	0.090624	1.000000	-0.000022	0.000071	0.000095
50404	NaN	4.209475	-0.476504	8.948225	0.028245	-0.072914	0.087380	1.000000	-0.000026	0.000071	0.000103
50405	NaN	4.187475	-0.476790	8.961951	0.024399	-0.046375	0.090651	1.000000	-0.000028	0.000079	0.000099
50406	NaN	4.213506	-0.523303	8.918184	-0.018837	-0.092947	0.064179	1.000000	-0.000010	0.000061	0.000104
50407	NaN	4.216599	-0.491359	8.968457	0.013036	-0.070314	0.109472	1.000000	-0.000011	0.000075	0.000089
50408	NaN	4.196974	-0.502720	8.941569	-0.000174	-0.065461	0.077443	1.000000	-0.000026	0.000086	0.000087
50409	NaN	4.210894	-0.547940	8.970218	-0.043775	-0.070333	0.111516	1.000000	0.000002	0.000084	0.000093
50410	NaN	4.191371	-0.493049	8.983599	0.008730	-0.042312	0.112729	1.000000	-0.000002	0.000075	0.000073
50411	NaN	4.199251	-0.549404	8.912341	-0.047600	-0.084741	0.054224	1.000000	-0.000002	0.000072	0.000095
50412	NaN	4.181727	-0.516203	8.975743	-0.016106	-0.039312	0.102728	1.000000	-0.000004	0.000068	0.000085
50413	NaN	4.155433	-0.482766	8.980019	0.012787	-0.009678	0.093935	1.000000	0.000019	0.000081	0.000083
50414	NaN	4.220034	-0.519243	8.950831	-0.017101	-0.084119	0.096314	1.000000	0.000020	0.000069	0.000077
50415	NaN	4.152647	-0.483462	8.981271	0.009568	-0.005939	0.093942	1.000000	0.000017	0.000074	0.000094
50416	NaN	4.171793	-0.485002	8.968822	0.009728	-0.028980	0.090742	1.000000	0.000013	0.000076	0.000081
50417	NaN	4.188443	-0.475376	8.997021	0.022354	-0.030634	0.122804	1.000000	-0.000002	0.000072	0.000095
50418	NaN	4.214478	-0.455638	8.993635	0.044756	-0.054022	0.129645	1.000000	-0.000000	0.000080	0.000083
50419	NaN	4.226826	-0.478998	8.972086	0.022284	-0.075352	0.116444	1.000000	0.000002	0.000060	0.000081
50420	NaN	4.246075	-0.480842	8.959602	0.022412	-0.098380	0.113271	1.000000	-0.000004	0.000080	0.000091
50421	NaN	4.185384	-0.489883	8.958796	0.006595	-0.044582	0.087587	1.000000	-0.000006	0.000070	0.000124
50422	NaN	4.202041	-0.480609	8.986985	0.017940	-0.047112	0.119658	1.000000	-0.000007	0.000075	0.000081
50423	NaN	4.175724	-0.513176	8.950919	-0.019229	-0.041067	0.077556	1.000000	0.000005	0.000065	0.000091
50424	NaN	4.181319	-0.492340	8.960560	0.002093	-0.040265	0.087607	1.000000	-0.000002	0.000073	0.000095
50425	NaN	4.190932	-0.570284	8.939416	-0.075107	-0.064480	0.076321	1.000000	0.000016	0.000067	0.000106
50426	NaN	4.226835	-0.474061	8.944666	0.023980	-0.085649	0.091353	1.000000	0.000037	0.000063	0.000088
50427	NaN	4.257193	-0.486690	8.950779	0.012981	-0.110824	0.110243	1.000000	0.000024	0.000081	0.000075
50428	NaN	4.265454	-0.476714	8.919760	0.023072	-0.130545	0.085085	1.000000	0.000026	0.000047	0.000088
50429	NaN	4.230043	-0.453278	8.955449	0.042588	-0.080880	0.101466	1.000000	0.000007	0.000072	0.000079
50430	NaN	4.239755	-0.464978	8.974629	0.031627	-0.082994	0.123499	1.000000	0.000037	0.000075	0.000094
50431	NaN	4.241190	-0.476687	8.934494	0.019004	-0.101381	0.088296	1.000000	0.000020	0.000040	0.000108
50432	NaN	4.171281	-0.495214	8.965078	-0.007211	-0.027255	0.087649	1.000000	0.000028	0.000078	0.000088
50433	NaN	4.197439	-0.475207	8.961730	0.015049	-0.049828	0.094594	1.000000	0.000016	0.000067	0.000106
50434	NaN	4.186589	-0.485898	8.993910	0.003077	-0.027714	0.119747	1.000000	0.000026	0.000071	0.000100
50435	NaN	4.187760	-0.497447	8.953908	-0.009183	-0.045945	0.084537	1.000000	0.000041	0.000075	0.000086
50436	NaN	4.197506	-0.509070	8.973068	-0.020160	-0.048004	0.106559	1.000000	0.000009	0.000065	0.000083
50437	NaN	4.157595	-0.518537	8.959046	-0.033653	-0.017557	0.077587	1.000000	0.000024	0.000066	0.000090
50438	NaN	4.115041	-0.516135	8.985711	-0.036529	0.032037	0.083806	1.000000	0.000059	0.000072	0.000077
50439	NaN	4.111115	-0.504511	9.026977	-0.026545	0.054776	0.119000	1.000000	0.000044	0.000068	0.000090
50440	NaN	4.119266	-0.494098	8.996052	-0.016461	0.035012	0.093873	1.000000	0.000056	0.000079	0.000073
50441	NaN	4.110914	-0.515302	8.987647	-0.040784	0.037868	0.083769	1.000000	0.000052	0.000067	0.000075
50442	NaN	4.137155	-0.494603	8.984329	-0.018537	0.014472	0.090761	1.000000	0.000050	0.000075	0.000071
50443	NaN	4.087688	-0.513332	9.001890	-0.044952	0.066654	0.086821	1.000000	0.000068	0.000057	0.000076
50444	NaN	4.045169	-0.510291	9.028514	-0.047778	0.116284	0.092970	1.000000	0.000069	0.000076	0.000071
50445	NaN	4.043887	-0.509565	9.029129	-0.049073	0.118977	0.092932	1.000000	0.000067	0.000059	0.000055
50446	NaN	4.066401	-0.455613	9.016149	0.005432	0.098334	0.088042	1.000000	0.000059	0.000047	0.000065
50447	NaN	4.106624	-0.457363	8.990654	0.006967	0.052667	0.081886	1.000000	0.000078	0.000061	0.000071
50448	NaN	4.146746	-0.459085	8.965219	0.007843	0.005498	0.075757	1.000000	0.000063	0.000059	0.000063
50449	NaN	4.149949	-0.425582	9.015445	0.039141	0.028385	0.121049	1.000000	0.000050	0.000062	0.000065
50450	NaN	4.134872	-0.468367	8.997888	-0.006242	0.030548	0.100816	1.000000	0.000052	0.000055	0.000069
50451	NaN	4.109118	-0.433882	9.001842	0.023694	0.059927	0.091964	1.000000	0.000044	0.000058	0.000063
50452	NaN	4.132807	-0.467920	8.998860	-0.008680	0.034302	0.100802	1.000000	0.000040	0.000044	0.000086
50453	NaN	4.127453	-0.500720	8.949674	-0.044357	0.015904	0.055496	1.000000	0.000059	0.000060	0.000071
50454	NaN	4.169058	-0.524314	8.974393	-0.064639	-0.013296	0.096466	1.000000	0.000046	0.000051	0.000067
50455	NaN	4.223219	-0.483250	8.967045	-0.021107	-0.060699	0.110663	1.000000	0.000065	0.000064	0.000073
50456	NaN	4.231646	-0.472521	8.936072	-0.011101	-0.080522	0.085639	1.000000	0.000070	0.000064	0.000065
50457	NaN	4.213812	-0.503425	8.959223	-0.046742	-0.056668	0.100533	1.000000	0.000074	0.000064	0.000057
50458	NaN	4.206033	-0.458089	8.990836	-0.004210	-0.032105	0.123843	1.000000	0.000080	0.000056	0.000053
50459	NaN	4.155241	-0.454721	8.958148	-0.008451	0.001801	0.072713	1.000000	0.000080	0.000068	0.000059
50460	NaN	4.217388	-0.479113	8.970011	-0.027963	-0.051533	0.110698	1.000000	0.000070	0.000052	0.000059
50461	NaN	4.180639	-0.432712	8.955339	0.012065	-0.019253	0.079863	1.000000	0.000080	0.000068	0.000059
50462	NaN	4.228965	-0.434145	8.989288	0.013851	-0.048823	0.131022	1.000000	0.000076	0.000071	0.000045
50463	NaN	4.226441	-0.412020	8.939694	0.033477	-0.064620	0.084049	1.000000	0.000059	0.000060	0.000071
50464	NaN	4.202028	-0.398799	8.993777	0.042859	-0.018458	0.122197	1.000000	0.000052	0.000055	0.000069
50465	NaN	4.182899	-0.408624	8.966689	0.029291	-0.012061	0.090046	1.000000	0.000057	0.000067	0.000067
50466	NaN	4.181759	-0.408390	8.967232	0.028291	-0.010767	0.090051	1.000000	0.000033	0.000054	0.000069
50467	NaN	4.191546	-0.419695	8.986414	0.017198	-0.011957	0.112050	1.000000	0.000039	0.000071	0.000076
50468	NaN	4.168405	-0.396988	8.949716	0.036498	-0.004571	0.068065	1.000000	0.000035	0.000059	0.000078
50469	NaN	4.184702	-0.452855	8.937985	-0.018353	-0.028994	0.066747	1.000000	0.000033	0.000078	0.000080
50470	NaN	4.191824	-0.452825	8.997736	-0.018298	-0.010033	0.123874	1.000000	0.000029	0.000040	0.000092
50471	NaN	4.170069	-0.451653	9.011173	-0.019372	0.015653	0.126834	1.000000	0.000031	0.000073	0.000071
50472	NaN	4.171389	-0.463175	8.971226	-0.031593	-0.003728	0.091701	1.000000	0.000035	0.000073	0.000063
50473	NaN	4.166168	-0.430149	8.962204	-0.000416	0.000839	0.079890	1.000000	0.000037	0.000066	0.000067
50474	NaN	4.196520	-0.442860	8.968504	-0.010791	-0.025083	0.098933	1.000000	0.000029	0.000066	0.000082
50475	NaN	4.163723	-0.430352	8.963330	-0.002358	0.004213	0.079888	1.000000	0.000031	0.000059	0.000086
50476	NaN	4.155567	-0.452021	8.954839	-0.025533	0.006049	0.069697	1.000000	0.000035	0.000059	0.000078
50477	NaN	4.137942	-0.417799	9.017923	0.006393	0.053018	0.117932	1.000000	0.000002	0.000075	0.000065
50478	NaN	4.122642	-0.461324	9.000452	-0.038952	0.055412	0.097537	1.000000	0.000024	0.000055	0.000084
50479	NaN	4.085895	-0.415779	8.985641	0.003846	0.086762	0.066666	1.000000	0.000033	0.000081	0.000059
50480	NaN	4.127055	-0.439843	9.010658	-0.016744	0.057926	0.107714	1.000000	0.000026	0.000062	0.000073
50481	NaN	4.132872	-0.418416	9.020219	0.004650	0.059674	0.117895	1.000000	0.000029	0.000066	0.000082
50482	NaN	4.145325	-0.441615	8.998836	-0.017770	0.037334	0.104776	1.000000	0.000016	0.000057	0.000079
50483	NaN	4.171758	-0.421633	8.995527	0.004630	0.014393	0.112060	1.000000	0.000033	0.000078	0.000080
50484	NaN	4.152685	-0.432101	8.968365	-0.008332	0.019229	0.079867	1.000000	0.000009	0.000041	0.000071
50485	NaN	4.169598	-0.422116	8.996506	0.002718	0.017278	0.112057	1.000000	0.000033	0.000066	0.000075
50486	NaN	4.191752	-0.435236	8.943625	-0.008795	-0.026354	0.074065	1.000000	0.000020	0.000069	0.000077
50487	NaN	4.218230	-0.415314	8.940319	0.014215	-0.049248	0.081383	1.000000	0.000018	0.000065	0.000067
50488	NaN	4.248531	-0.428396	8.946687	0.003740	-0.075064	0.100490	1.000000	0.000016	0.000070	0.000084
50489	NaN	4.202063	-0.393114	8.963374	0.033779	-0.022090	0.094498	1.000000	0.000013	0.000065	0.000075
50490	NaN	4.225305	-0.428014	8.960724	0.001122	-0.047313	0.103397	1.000000	-0.000004	0.000068	0.000084
50491	NaN	4.213127	-0.417331	8.942632	0.010978	-0.042868	0.081417	1.000000	0.000011	0.000070	0.000092
50492	NaN	4.192153	-0.437799	9.006338	-0.011785	0.001153	0.131145	1.000000	0.000005	0.000068	0.000069
50493	NaN	4.228527	-0.408306	8.971459	0.020526	-0.043405	0.113637	1.000000	-0.000002	0.000061	0.000088
50494	NaN	4.220161	-0.430650	8.963022	-0.002619	-0.041475	0.103423	1.000000	-0.000006	0.000076	0.000080
50495	NaN	4.256525	-0.401369	8.928165	0.030463	-0.085890	0.085945	1.000000	-0.000008	0.000057	0.000086
50496	NaN	4.249300	-0.445233	8.969886	-0.013797	-0.065474	0.122561	1.000000	-0.000010	0.000062	0.000104
50497	NaN	4.222653	-0.390601	8.923362	0.037497	-0.056149	0.066847	1.000000	-0.000015	0.000064	0.000090
50498	NaN	4.222387	-0.413032	8.974134	0.015391	-0.036312	0.113675	1.000000	-0.000019	0.000065	0.000098
50499	NaN	4.217832	-0.468631	8.975305	-0.040358	-0.036285	0.115196	1.000000	-0.000010	0.000062	0.000104
50500	NaN	4.216287	-0.382250	8.965476	0.045590	-0.030966	0.101944	1.000000	-0.000012	0.000057	0.000094
50501	NaN	4.191051	-0.436466	8.979476	-0.009496	-0.006516	0.106298	1.000000	-0.000023	0.000065	0.000106
50502	NaN	4.189804	-0.437627	8.980002	-0.010470	-0.005160	0.106298	1.000000	-0.000015	0.000064	0.000090
50503	NaN	4.177766	-0.427502	8.961820	-0.001699	-0.000603	0.084317	1.000000	-0.000039	0.000063	0.000098
50504	NaN	4.155816	-0.427466	8.975176	-0.003318	0.024991	0.087145	1.000000	-0.000023	0.000065	0.000105
50505	NaN	4.175319	-0.430184	8.962832	-0.004060	0.002696	0.084316	1.000000	-0.000026	0.000060	0.000096
50506	NaN	4.194807	-0.432804	8.950505	-0.004400	-0.020190	0.081495	1.000000	-0.000008	0.000066	0.000113
50507	NaN	4.204183	-0.445553	8.969800	-0.015005	-0.021271	0.103476	1.000000	-0.000036	0.000080	0.000113
50508	NaN	4.195828	-0.468498	8.961275	-0.038129	-0.019286	0.093224	1.000000	-0.000025	0.000048	0.000090
50509	NaN	4.142339	-0.455070	8.968791	-0.030067	0.034316	0.076862	1.000000	0.000007	0.000085	0.000084
50510	NaN	4.131075	-0.465928	9.000884	-0.041899	0.057129	0.101634	1.000000	-0.000023	0.000053	0.000100
50511	NaN	4.129814	-0.466830	9.001416	-0.042175	0.059156	0.101621	1.000000	0.000009	0.000077	0.000088
50512	NaN	4.106976	-0.444602	8.964577	-0.022610	0.066102	0.057656	1.000000	0.000007	0.000058	0.000094
50513	NaN	4.120762	-0.423626	9.033436	-0.000253	0.084541	0.124916	1.000000	-0.000002	0.000073	0.000094
50514	NaN	4.170171	-0.395980	8.926564	0.031966	-0.002737	0.047822	1.000000	0.000005	0.000053	0.000084
50515	NaN	4.167162	-0.406542	9.017772	0.020812	0.037960	0.129589	1.000000	-0.000012	0.000045	0.000088
50516	NaN	4.165286	-0.386185	8.968006	0.040983	0.020628	0.082856	1.000000	-0.000012	0.000069	0.000100
50517	NaN	4.146893	-0.418680	8.991027	0.007193	0.044301	0.097336	1.000000	-0.000015	0.000064	0.000090
50518	NaN	4.152867	-0.398410	9.000555	0.028367	0.045024	0.107604	1.000000	-0.000036	0.000056	0.000102
50519	NaN	4.175957	-0.434185	8.997918	-0.004322	0.020069	0.116524	1.000000	-0.000021	0.000072	0.000094
50520	NaN	4.170446	-0.468631	8.948797	-0.038702	0.001235	0.071224	1.000000	-0.000032	0.000054	0.000115
50521	NaN	4.215038	-0.439951	8.973287	-0.005412	-0.025712	0.110986	1.000000	-0.000023	0.000065	0.000105
50522	NaN	4.245304	-0.454128	8.979699	-0.016101	-0.051338	0.130197	1.000000	-0.000017	0.000057	0.000101
50523	NaN	4.267787	-0.468304	8.926805	-0.027655	-0.095532	0.092426	1.000000	-0.000012	0.000057	0.000094
50524	NaN	4.256573	-0.479160	8.958835	-0.039511	-0.072655	0.117161	1.000000	0.000001	0.000066	0.000098
50525	NaN	4.203193	-0.465508	8.966226	-0.030224	-0.019388	0.100710	1.000000	0.000007	0.000056	0.000115
50526	NaN	4.260603	-0.437921	8.918755	0.002938	-0.088686	0.080787	1.000000	-0.000006	0.000076	0.000080
50527	NaN	4.231354	-0.458636	8.923083	-0.020665	-0.062204	0.073253	1.000000	0.000005	0.000066	0.000090
50528	NaN	4.206482	-0.446128	8.976996	-0.010927	-0.015701	0.111002	1.000000	0.000009	0.000065	0.000082
50529	NaN	4.233105	-0.426701	8.973858	0.010687	-0.038588	0.118565	1.000000	0.000011	0.000070	0.000092
50530	NaN	4.172391	-0.434297	8.972238	-0.003225	0.014658	0.091771	1.000000	0.000003	0.000073	0.000086
50531	NaN	4.191853	-0.436306	8.960038	-0.003616	-0.007725	0.089040	1.000000	0.000022	0.000062	0.000080
50532	NaN	4.190546	-0.436743	8.960628	-0.004584	-0.006350	0.089041	1.000000	0.000014	0.000075	0.000101
50533	NaN	4.168392	-0.435760	8.974026	-0.005339	0.019805	0.091761	1.000000	0.000007	0.000073	0.000078
50534	NaN	4.184517	-0.404985	8.952095	0.026677	-0.001043	0.077383	1.000000	0.000003	0.000046	0.000096
50535	NaN	4.197466	-0.450072	8.981019	-0.017111	-0.003743	0.111005	1.000000	0.000009	0.000078	0.000088
50536	NaN	4.182494	-0.427580	9.003477	0.003511	0.021234	0.124023	1.000000	0.000012	0.000070	0.000092
50537	NaN	4.163417	-0.438143	8.976219	-0.009417	0.026806	0.091741	1.000000	0.000011	0.000058	0.000086
50538	NaN	4.182915	-0.440368	8.964015	-0.009856	0.003934	0.089038	1.000000	-0.000001	0.000074	0.000094
50539	NaN	4.188825	-0.419661	8.973648	0.010958	0.004927	0.099355	1.000000	-0.000002	0.000061	0.000088
50540	NaN	4.190972	-0.453167	8.983896	-0.022454	0.004332	0.110995	1.000000	0.000022	0.000074	0.000086
50541	NaN	4.189167	-0.432337	8.934242	-0.002387	-0.013037	0.064384	1.000000	-0.000002	0.000061	0.000088
50542	NaN	4.206259	-0.444213	9.012846	-0.012760	0.003989	0.143273	1.000000	0.000020	0.000070	0.000076
50543	NaN	4.187059	-0.454770	8.985639	-0.024880	0.008652	0.110986	1.000000	-0.000001	0.000074	0.000094
50544	NaN	4.172151	-0.432320	9.008048	-0.004241	0.033628	0.123988	1.000000	0.000020	0.000067	0.000097
50545	NaN	4.212366	-0.436012	8.983165	-0.004032	-0.012815	0.118637	1.000000	0.000012	0.000070	0.000092
50546	NaN	4.221083	-0.426575	8.952335	0.005840	-0.033057	0.094012	1.000000	0.000020	0.000082	0.000082
50547	NaN	4.230083	-0.438461	8.971827	-0.005850	-0.034328	0.115974	1.000000	0.000014	0.000090	0.000086
50548	NaN	4.166000	-0.412773	8.960372	0.012896	0.020827	0.077389	1.000000	0.000014	0.000051	0.000090
50549	NaN	4.185498	-0.414778	8.948224	0.012403	-0.002130	0.074729	1.000000	0.000016	0.000084	0.000068
50550	NaN	4.188282	-0.382235	8.998521	0.044807	0.019529	0.120026	1.000000	-0.000001	0.000074	0.000093
50551	NaN	4.172548	-0.425912	8.980933	-0.000477	0.022455	0.099336	1.000000	0.000003	0.000061	0.000080
50552	NaN	4.171298	-0.426745	8.981474	-0.001441	0.023846	0.099333	1.000000	-0.000012	0.000070	0.000099
50553	NaN	4.166620	-0.394821	8.972360	0.029322	0.026991	0.087729	1.000000	-0.000012	0.000070	0.000099
50554	NaN	4.140571	-0.448635	8.986263	-0.026689	0.051425	0.091613	1.000000	-0.000006	0.000074	0.000101
50555	NaN	4.115221	-0.414871	8.989812	0.004574	0.079555	0.082641	1.000000	0.000001	0.000054	0.000092
50556	NaN	4.127816	-0.460116	9.018818	-0.039223	0.076480	0.116173	1.000000	-0.000004	0.000081	0.000090
50557	NaN	4.154204	-0.420081	8.965507	0.003917	0.034233	0.077359	1.000000	-0.000032	0.000054	0.000115
50558	NaN	4.150057	-0.409876	9.006533	0.014216	0.056619	0.112291	1.000000	-0.000023	0.000065	0.000105
50559	NaN	4.190275	-0.414271	8.981719	0.014162	0.010003	0.107041	1.000000	-0.000010	0.000077	0.000088
50560	NaN	4.209749	-0.417078	8.969588	0.013641	-0.012870	0.104424	1.000000	-0.000030	0.000061	0.000103
50561	NaN	4.173185	-0.459577	8.964627	-0.032602	0.014281	0.086301	1.000000	-0.000012	0.000070	0.000099
50562	NaN	4.200005	-0.440868	8.961552	-0.011033	-0.009296	0.094058	1.000000	-0.000017	0.000058	0.000101
50563	NaN	4.198636	-0.441798	8.962148	-0.011651	-0.007377	0.094059	1.000000	0.000003	0.000086	0.000091
50564	NaN	4.158841	-0.472186	8.997837	-0.045971	0.040745	0.110831	1.000000	-0.000004	0.000069	0.000084
50565	NaN	4.147276	-0.461516	8.979498	-0.036840	0.044744	0.088874	1.000000	-0.000010	0.000038	0.000092
50566	NaN	4.174340	-0.442705	8.976334	-0.015289	0.021159	0.096651	1.000000	-0.000014	0.000065	0.000090
50567	NaN	4.134575	-0.472909	9.011985	-0.048529	0.069419	0.113392	1.000000	0.000020	0.000084	0.000061
50568	NaN	4.192335	-0.445218	8.964927	-0.015747	-0.000196	0.094056	1.000000	0.000014	0.000065	0.000074
50569	NaN	4.170190	-0.443863	8.978205	-0.017423	0.026040	0.096636	1.000000	0.000018	0.000077	0.000072
50570	NaN	4.168846	-0.444187	8.978813	-0.018388	0.027446	0.096631	1.000000	0.000014	0.000065	0.000074
50571	NaN	4.157160	-0.433009	8.960563	-0.009389	0.031312	0.074683	1.000000	0.000011	0.000061	0.000065
50572	NaN	4.191257	-0.392118	8.966681	0.034211	0.006975	0.092894	1.000000	0.000023	0.000075	0.000086
50573	NaN	4.207641	-0.382618	8.995202	0.044645	0.006049	0.125233	1.000000	0.000007	0.000073	0.000078
50574	NaN	4.192697	-0.338900	8.967280	0.086584	0.011683	0.091758	1.000000	-0.000006	0.000060	0.000116
50575	NaN	4.194736	-0.372979	8.977464	0.052917	0.011402	0.103302	1.000000	-0.000021	0.000061	0.000088
50576	NaN	4.183063	-0.362885	8.959172	0.062370	0.015277	0.081368	1.000000	-0.000047	0.000065	0.000112
50577	NaN	4.195495	-0.409250	8.988137	0.019461	0.012679	0.114837	1.000000	-0.000053	0.000061	0.000111
50578	NaN	4.197472	-0.444199	8.998282	-0.014007	0.012382	0.126368	1.000000	-0.000058	0.000061	0.000118
50579	NaN	4.191984	-0.479148	8.949100	-0.048912	-0.005917	0.081062	1.000000	-0.000047	0.000065	0.000112
50580	NaN	4.219058	-0.482603	8.996244	-0.048682	-0.010160	0.135342	1.000000	-0.000042	0.000050	0.000120
50581	NaN	4.231095	-0.485933	8.924834	-0.050614	-0.051189	0.075982	1.000000	-0.000027	0.000093	0.000103
50582	NaN	4.219134	-0.496849	8.956952	-0.062387	-0.027929	0.100449	1.000000	-0.000001	0.000074	0.000093
50583	NaN	4.242801	-0.445279	8.944350	-0.008356	-0.050129	0.096826	1.000000	-0.000027	0.000066	0.000112
50584	NaN	4.223786	-0.477717	8.967208	-0.042192	-0.026094	0.110867	1.000000	-0.000008	0.000069	0.000091
50585	NaN	4.226706	-0.424078	8.967233	0.010824	-0.023008	0.109787	1.000000	0.000005	0.000066	0.000089
50586	NaN	4.176401	-0.442677	8.983939	-0.012886	0.027749	0.104395	1.000000	0.000003	0.000073	0.000086
50587	NaN	4.210662	-0.402282	8.990113	0.029835	0.003454	0.122741	1.000000	0.000001	0.000054	0.000091
50588	NaN	4.202056	-0.424505	8.981544	0.006796	0.005643	0.112308	1.000000	0.000001	0.000079	0.000103
50589	NaN	4.127691	-0.408618	9.001215	0.015049	0.082542	0.097894	1.000000	-0.000010	0.000075	0.000108
50590	NaN	4.133822	-0.388226	9.010853	0.036137	0.083185	0.108324	1.000000	-0.000010	0.000050	0.000097
50591	NaN	4.117844	-0.432147	8.993133	-0.009314	0.086356	0.087429	1.000000	-0.000021	0.000085	0.000099
50592	NaN	4.134169	-0.423423	9.021671	0.001302	0.084606	0.119786	1.000000	-0.000010	0.000062	0.000103
50593	NaN	4.139095	-0.469054	8.991304	-0.043847	0.063872	0.096383	1.000000	-0.000010	0.000062	0.000103
50594	NaN	4.155655	-0.438908	8.969550	-0.011980	0.042610	0.082411	1.000000	-0.000019	0.000065	0.000097
50595	NaN	4.164800	-0.451589	8.988880	-0.024031	0.041602	0.104325	1.000000	-0.000010	0.000062	0.000103
50596	NaN	4.191730	-0.432859	8.985970	-0.002654	0.017956	0.112296	1.000000	-0.000003	0.000069	0.000084
50597	NaN	4.179978	-0.443555	9.017928	-0.013675	0.041875	0.136687	1.000000	-0.000014	0.000065	0.000089
50598	NaN	4.147747	-0.431278	9.012121	-0.004462	0.069950	0.117228	1.000000	-0.000019	0.000039	0.000107
50599	NaN	4.170418	-0.467093	9.009695	-0.037738	0.045755	0.126208	1.000000	-0.000003	0.000081	0.000089
50600	NaN	4.176545	-0.425053	8.969220	0.004592	0.026788	0.090361	1.000000	-0.000001	0.000062	0.000087
50601	NaN	4.165011	-0.414198	8.950916	0.014053	0.030690	0.068438	1.000000	-0.000001	0.000062	0.000087
50602	NaN	4.205376	-0.439975	8.976490	-0.007637	0.003149	0.109816	1.000000	-0.000001	0.000062	0.000087
50603	NaN	4.196913	-0.462251	8.967807	-0.030839	0.005679	0.099342	1.000000	-0.000010	0.000050	0.000097
50604	NaN	4.192699	-0.429998	8.958683	0.000717	0.008630	0.087896	1.000000	0.000005	0.000081	0.000074
50605	NaN	4.212303	-0.432573	8.946660	0.000700	-0.014130	0.085451	1.000000	-0.000010	0.000050	0.000097
50606	NaN	4.228923	-0.423814	8.975103	0.011249	-0.015832	0.117847	1.000000	-0.000010	0.000063	0.000103
50607	NaN	4.189127	-0.432544	8.960232	-0.000998	0.013389	0.087891	1.000000	0.000010	0.000066	0.000082
50608	NaN	4.229659	-0.436884	8.935624	-0.001480	-0.033764	0.083025	1.000000	-0.000008	0.000057	0.000086
50609	NaN	4.217950	-0.447612	8.967520	-0.013640	-0.010296	0.107372	1.000000	-0.000014	0.000065	0.000089
50610	NaN	4.175019	-0.444825	8.993162	-0.015100	0.039723	0.112221	1.000000	-0.000001	0.000062	0.000087
50611	NaN	4.152931	-0.443687	9.006253	-0.015793	0.065397	0.114636	1.000000	0.000005	0.000066	0.000089
50612	NaN	4.165209	-0.467750	8.985045	-0.038565	0.043376	0.101717	1.000000	-0.000008	0.000055	0.000107
50613	NaN	4.163952	-0.468502	8.985588	-0.039572	0.044945	0.101706	1.000000	0.000003	0.000076	0.000064
50614	NaN	4.222388	-0.441541	8.938833	-0.007333	-0.025071	0.083048	1.000000	0.000016	0.000056	0.000099
50615	NaN	4.259665	-0.434271	8.954863	0.003506	-0.050462	0.113054	1.000000	0.000006	0.000078	0.000095
50616	NaN	4.250902	-0.456286	8.946313	-0.019507	-0.048177	0.102562	1.000000	0.000014	0.000063	0.000095
50617	NaN	4.246793	-0.423877	8.937196	0.012835	-0.045552	0.091158	1.000000	0.000005	0.000066	0.000089
50618	NaN	4.206973	-0.432411	8.922294	0.000167	-0.016724	0.061149	1.000000	0.000005	0.000066	0.000089
50619	NaN	4.156669	-0.450681	8.938706	-0.023324	0.034536	0.055430	1.000000	0.000005	0.000054	0.000084
50620	NaN	4.162399	-0.451171	8.998694	-0.023541	0.054934	0.112132	1.000000	0.000019	0.000090	0.000078
50621	NaN	4.140077	-0.449964	9.011858	-0.025006	0.080817	0.114504	1.000000	-0.000010	0.000063	0.000103
50622	NaN	4.177585	-0.421353	8.977744	0.006963	0.035030	0.098335	1.000000	0.000016	0.000085	0.000068
50623	NaN	4.176268	-0.421863	8.978333	0.006018	0.037049	0.098329	1.000000	0.000001	0.000054	0.000091
50624	NaN	4.154273	-0.420721	8.991336	0.004876	0.062785	0.100695	1.000000	-0.000001	0.000062	0.000087
50625	NaN	4.194768	-0.425325	8.966849	0.003866	0.015495	0.095951	1.000000	-0.000008	0.000070	0.000091
50626	NaN	4.175764	-0.435940	8.939405	-0.008567	0.020009	0.063524	1.000000	-0.000008	0.000070	0.000091
50627	NaN	4.184713	-0.448542	8.958813	-0.020340	0.019063	0.085422	1.000000	-0.000014	0.000065	0.000089
50628	NaN	4.175876	-0.470808	8.950247	-0.043327	0.021373	0.074890	1.000000	-0.000003	0.000082	0.000089
50629	NaN	4.199590	-0.440635	8.988057	-0.010990	0.018935	0.117842	1.000000	-0.000014	0.000065	0.000089
50630	NaN	4.107815	-0.433963	8.979196	-0.013318	0.098528	0.070559	1.000000	-0.000010	0.000063	0.000102
50631	NaN	4.176790	-0.419147	8.951357	0.008855	0.026028	0.074035	1.000000	0.000005	0.000054	0.000084
50632	NaN	4.164967	-0.429765	8.983206	-0.002842	0.049582	0.098275	1.000000	-0.000018	0.000066	0.000097
50633	NaN	4.174349	-0.421032	8.952407	0.006395	0.028306	0.074031	1.000000	-0.000008	0.000070	0.000091
50634	NaN	4.217650	-0.458852	8.937631	-0.026858	-0.020160	0.080706	1.000000	-0.000012	0.000058	0.000093
50635	NaN	4.199910	-0.425007	9.000290	0.005073	0.025811	0.128359	1.000000	-0.000019	0.000054	0.000091
50636	NaN	4.201935	-0.437828	8.960264	-0.007183	0.005993	0.093583	1.000000	-0.000020	0.000071	0.000114
50637	NaN	4.218266	-0.429457	8.988871	0.003539	0.004885	0.126023	1.000000	-0.000023	0.000066	0.000104
50638	NaN	4.217526	-0.409179	8.939201	0.023860	-0.013676	0.079912	1.000000	-0.000014	0.000065	0.000089
50639	NaN	4.239806	-0.445301	8.936970	-0.010116	-0.037595	0.088937	1.000000	-0.000025	0.000074	0.000100
50640	NaN	4.235709	-0.413490	8.927898	0.021486	-0.034915	0.077605	1.000000	-0.000020	0.000073	0.000093
50641	NaN	4.223662	-0.424625	8.959798	0.010311	-0.011763	0.101815	1.000000	-0.000042	0.000065	0.000104
50642	NaN	4.235820	-0.449556	8.938647	-0.012552	-0.033730	0.088948	1.000000	-0.000042	0.000065	0.000104
50643	NaN	4.249579	-0.408408	8.957543	0.030873	-0.034295	0.110073	1.000000	-0.000025	0.000059	0.000116
50644	NaN	4.240780	-0.431232	8.948895	0.007895	-0.031959	0.099518	1.000000	-0.000038	0.000077	0.000102
50645	NaN	4.197539	-0.428967	8.974416	0.007240	0.018248	0.104122	1.000000	-0.000049	0.000073	0.000108
50646	NaN	4.196151	-0.430761	8.974979	0.006265	0.019686	0.104120	1.000000	-0.000044	0.000071	0.000121
50647	NaN	4.173929	-0.430511	8.987967	0.005387	0.044852	0.106412	1.000000	-0.000042	0.000065	0.000104
50648	NaN	4.175888	-0.443744	8.947961	-0.006868	0.024996	0.071658	1.000000	-0.000040	0.000070	0.000114
50649	NaN	4.194795	-0.468776	8.986253	-0.028936	0.022682	0.115427	1.000000	-0.000036	0.000070	0.000106
50650	NaN	4.162369	-0.456548	8.980402	-0.019378	0.050525	0.095816	1.000000	-0.000029	0.000074	0.000108
50651	NaN	4.171183	-0.469531	8.999814	-0.030786	0.050173	0.117691	1.000000	-0.000021	0.000061	0.000087
50652	NaN	4.142011	-0.468586	8.953446	-0.032501	0.056703	0.063332	1.000000	-0.000029	0.000089	0.000092
50653	NaN	4.106302	-0.444662	8.988123	-0.011966	0.105860	0.078442	1.000000	-0.000036	0.000058	0.000100
50654	NaN	4.101793	-0.434591	9.029143	-0.001632	0.128609	0.113160	1.000000	-0.000031	0.000067	0.000119
50655	NaN	4.092941	-0.457360	9.020445	-0.024980	0.131365	0.102548	1.000000	-0.000031	0.000069	0.000098
50656	NaN	4.081538	-0.446862	9.002101	-0.015308	0.134869	0.080645	1.000000	-0.000018	0.000066	0.000096
50657	NaN	4.128971	-0.452269	9.037140	-0.015602	0.107380	0.132717	1.000000	-0.000031	0.000057	0.000093
50658	NaN	4.149403	-0.433972	8.975042	0.004796	0.064304	0.084438	1.000000	-0.000012	0.000070	0.000098
50659	NaN	4.168904	-0.437084	8.963223	0.003175	0.041339	0.082182	1.000000	-0.000018	0.000078	0.000102
50660	NaN	4.177522	-0.449905	8.982727	-0.008441	0.040742	0.104054	1.000000	-0.000020	0.000076	0.000072
50661	NaN	4.137729	-0.458514	8.967553	-0.020742	0.069513	0.073807	1.000000	-0.000027	0.000057	0.000085
50662	NaN	4.175004	-0.451979	8.983793	-0.010349	0.043675	0.104040	1.000000	-0.000001	0.000074	0.000093
50663	NaN	4.135167	-0.460503	8.968633	-0.023556	0.072135	0.073782	1.000000	-0.000025	0.000062	0.000095
50664	NaN	4.214288	-0.458112	8.960067	-0.013116	-0.002322	0.099563	1.000000	-0.000007	0.000070	0.000091
50665	NaN	4.210404	-0.425968	8.951035	0.017974	0.000029	0.088305	1.000000	-0.000005	0.000075	0.000100
50666	NaN	4.214929	-0.471366	8.920708	-0.026913	-0.020949	0.064847	1.000000	0.000003	0.000062	0.000079
50667	NaN	4.246369	-0.420149	8.967899	0.027484	-0.024094	0.118579	1.000000	-0.000016	0.000071	0.000106
50668	NaN	4.237440	-0.442537	8.959244	0.004531	-0.021698	0.107963	1.000000	-0.000016	0.000073	0.000085
50669	NaN	4.218514	-0.453198	8.931675	-0.007913	-0.017090	0.075472	1.000000	-0.000023	0.000066	0.000104
50670	NaN	4.190491	-0.407799	8.975509	0.034998	0.031068	0.101145	1.000000	-0.000023	0.000066	0.000104
50671	NaN	4.205010	-0.465534	8.964043	-0.021115	0.007948	0.099547	1.000000	-0.000031	0.000070	0.000098
50672	NaN	4.217039	-0.490260	8.942952	-0.044055	-0.013958	0.086708	1.000000	-0.000031	0.000070	0.000098
50673	NaN	4.199822	-0.435062	8.955567	0.009010	0.011845	0.088310	1.000000	-0.000014	0.000078	0.000094
50674	NaN	4.221708	-0.471304	8.953459	-0.024614	-0.012041	0.097339	1.000000	-0.000018	0.000078	0.000102
50675	NaN	4.220354	-0.472586	8.954030	-0.026354	-0.010846	0.097336	1.000000	-0.000029	0.000062	0.000102
50676	NaN	4.230035	-0.463934	8.923301	-0.016662	-0.031747	0.073285	1.000000	-0.000003	0.000070	0.000083
50677	NaN	4.202031	-0.418268	8.967138	0.025872	0.016009	0.098954	1.000000	-0.000018	0.000064	0.000117
50678	NaN	4.234925	-0.444982	8.933731	0.002920	-0.030224	0.083939	1.000000	-0.000031	0.000084	0.000083
50679	NaN	4.201669	-0.453915	8.977930	-0.009155	0.018166	0.110159	1.000000	-0.000031	0.000057	0.000092
50680	NaN	4.211440	-0.445506	8.947165	0.000536	-0.002755	0.086123	1.000000	-0.000022	0.000067	0.000104
50681	NaN	4.185818	-0.433213	9.000603	0.010371	0.043829	0.122984	1.000000	-0.000027	0.000067	0.000111
50682	NaN	4.187834	-0.446178	8.960633	-0.001877	0.023864	0.088292	1.000000	-0.000029	0.000074	0.000108
50683	NaN	4.196526	-0.459369	8.980059	-0.013377	0.023125	0.110144	1.000000	-0.000031	0.000057	0.000092
50684	NaN	4.216098	-0.462801	8.968284	-0.014397	0.000253	0.107977	1.000000	-0.000024	0.000086	0.000106
50685	NaN	4.204646	-0.452406	8.950013	-0.003743	0.003686	0.086122	1.000000	-0.000035	0.000070	0.000106
50686	NaN	4.205760	-0.487003	8.960123	-0.037387	0.004181	0.097306	1.000000	-0.000031	0.000055	0.000113
50687	NaN	4.214406	-0.500105	8.979564	-0.048995	0.003295	0.119155	1.000000	-0.000014	0.000078	0.000094
50688	NaN	4.189827	-0.466027	8.982843	-0.017297	0.030000	0.110120	1.000000	-0.000027	0.000057	0.000085
50689	NaN	4.194282	-0.511638	8.952452	-0.062786	0.008727	0.086613	1.000000	-0.000001	0.000074	0.000092
50690	NaN	4.198188	-0.458197	8.952750	-0.009191	0.010124	0.086114	1.000000	-0.000016	0.000073	0.000085
50691	NaN	4.185759	-0.468657	8.984603	-0.020154	0.033848	0.110102	1.000000	0.000008	0.000074	0.000077
50692	NaN	4.164466	-0.445645	8.947428	0.000310	0.039088	0.066397	1.000000	0.000002	0.000079	0.000102
50693	NaN	4.182824	-0.469965	8.985901	-0.021846	0.036986	0.110087	1.000000	0.000004	0.000076	0.000064
50694	NaN	4.171262	-0.458793	8.967723	-0.012103	0.040319	0.088232	1.000000	-0.000000	0.000099	0.000104
50695	NaN	4.192892	-0.494894	8.965719	-0.045919	0.016322	0.097257	1.000000	-0.000007	0.000070	0.000091
50696	NaN	4.168233	-0.460449	8.969046	-0.014182	0.042977	0.088218	1.000000	0.000006	0.000079	0.000094
50697	NaN	4.145758	-0.458978	8.982021	-0.014867	0.068446	0.090331	1.000000	0.000006	0.000079	0.000094
50698	NaN	4.123392	-0.457477	8.994939	-0.015778	0.094209	0.092435	1.000000	0.000006	0.000067	0.000089
50699	NaN	4.100998	-0.456022	9.007859	-0.016264	0.120335	0.094528	1.000000	-0.000003	0.000082	0.000089
50700	NaN	4.078575	-0.454613	9.020781	-0.017152	0.146101	0.096616	1.000000	-0.000003	0.000070	0.000083
50701	NaN	4.136671	-0.450306	9.025003	-0.007233	0.096216	0.124927	1.000000	-0.000001	0.000075	0.000092
50702	NaN	4.167399	-0.443315	8.982084	0.002350	0.050861	0.098870	1.000000	0.000025	0.000068	0.000089
50703	NaN	4.200423	-0.469596	8.948747	-0.021593	0.004589	0.083961	1.000000	-0.000018	0.000066	0.000096
50704	NaN	4.248727	-0.453798	8.934039	-0.000860	-0.043623	0.090482	1.000000	-0.000011	0.000071	0.000098
50705	NaN	4.255042	-0.433537	8.943944	0.019995	-0.042995	0.101203	1.000000	-0.000007	0.000070	0.000090
50706	NaN	4.240529	-0.509925	8.935541	-0.057511	-0.040350	0.090901	1.000000	-0.000001	0.000075	0.000092
50707	NaN	4.246813	-0.489472	8.945468	-0.036504	-0.040029	0.101619	1.000000	-0.000003	0.000070	0.000083
50708	NaN	4.235532	-0.478382	8.927177	-0.026739	-0.036763	0.079785	1.000000	-0.000003	0.000082	0.000088
50709	NaN	4.205324	-0.497960	8.930840	-0.049530	-0.009970	0.071141	1.000000	0.000021	0.000082	0.000081
50710	NaN	4.190432	-0.474822	8.953154	-0.028498	0.014781	0.083934	1.000000	0.000017	0.000085	0.000068
50711	NaN	4.170156	-0.506160	8.975688	-0.061147	0.039600	0.097110	1.000000	0.000006	0.000067	0.000089
50712	NaN	4.153373	-0.450158	8.988238	-0.007411	0.065112	0.098784	1.000000	0.000017	0.000071	0.000083
50713	NaN	4.173031	-0.452685	8.976578	-0.007591	0.041953	0.096714	1.000000	0.000021	0.000070	0.000075
50714	NaN	4.143027	-0.471940	8.980121	-0.030339	0.068757	0.088036	1.000000	0.000021	0.000070	0.000075
50715	NaN	4.135929	-0.427696	9.011672	0.012793	0.092496	0.111543	1.000000	0.000013	0.000083	0.000096
50716	NaN	4.176714	-0.432763	8.987693	0.011518	0.045283	0.107427	1.000000	0.000001	0.000043	0.000085
50717	NaN	4.217518	-0.437705	8.963724	0.010082	-0.002057	0.103325	1.000000	0.000021	0.000083	0.000081
50718	NaN	4.237180	-0.440332	8.952088	0.008937	-0.024944	0.101281	1.000000	0.000012	0.000059	0.000085
50719	NaN	4.295437	-0.436088	8.956424	0.018521	-0.075030	0.129772	1.000000	-0.000003	0.000070	0.000083
50720	NaN	4.255666	-0.443821	8.940976	0.006573	-0.046456	0.099251	1.000000	0.000010	0.000066	0.000081
50721	NaN	4.246681	-0.465662	8.932233	-0.016400	-0.044078	0.088511	1.000000	-0.000003	0.000070	0.000083
50722	NaN	4.203366	-0.461875	8.957287	-0.017056	0.006022	0.092578	1.000000	0.000006	0.000067	0.000089
50723	NaN	4.169725	-0.469925	9.001330	-0.027944	0.054572	0.118457	1.000000	0.000006	0.000079	0.000094
50724	NaN	4.179627	-0.461099	8.970721	-0.018307	0.033427	0.094597	1.000000	-0.000016	0.000061	0.000079
50725	NaN	4.178311	-0.461944	8.971291	-0.019691	0.034650	0.094590	1.000000	-0.000005	0.000077	0.000079
50726	NaN	4.194473	-0.453246	9.000157	-0.009594	0.033307	0.127164	1.000000	0.000012	0.000059	0.000085
50727	NaN	4.204478	-0.444445	8.969517	0.000241	0.012119	0.103322	1.000000	-0.000016	0.000071	0.000105
50728	NaN	4.201160	-0.412306	8.960441	0.031954	0.014210	0.092262	1.000000	-0.000001	0.000062	0.000087
50729	NaN	4.184507	-0.455567	8.942306	-0.012911	0.017650	0.070733	1.000000	-0.000014	0.000066	0.000088
50730	NaN	4.160576	-0.475752	9.005257	-0.035128	0.064338	0.118375	1.000000	-0.000009	0.000078	0.000086
50731	NaN	4.157104	-0.443484	8.996258	-0.002759	0.066321	0.107315	1.000000	-0.000000	0.000075	0.000092
50732	NaN	4.148101	-0.465553	8.987468	-0.025621	0.068838	0.096534	1.000000	-0.000012	0.000059	0.000092
50733	NaN	4.158229	-0.456785	8.956790	-0.015392	0.047940	0.072709	1.000000	-0.000001	0.000063	0.000087
50734	NaN	4.124684	-0.464833	9.000693	-0.026744	0.096362	0.098497	1.000000	-0.000005	0.000065	0.000073
50735	NaN	4.159927	-0.425592	9.007703	0.015941	0.071426	0.118046	1.000000	-0.000009	0.000063	0.000102
50736	NaN	4.143248	-0.468842	8.989535	-0.028793	0.075047	0.096480	1.000000	-0.000001	0.000063	0.000087
50737	NaN	4.128784	-0.446209	9.011570	-0.007391	0.099932	0.109224	1.000000	-0.000012	0.000059	0.000092
50738	NaN	4.133106	-0.491906	8.981198	-0.052357	0.079232	0.085668	1.000000	-0.000022	0.000069	0.000082
50739	NaN	4.118429	-0.469412	9.003319	-0.031362	0.103837	0.098408	1.000000	-0.000005	0.000075	0.000100
50740	NaN	4.098131	-0.501245	9.025634	-0.064794	0.129068	0.111382	1.000000	-0.000025	0.000050	0.000088
50741	NaN	4.098573	-0.480526	8.976003	-0.044566	0.109528	0.065767	1.000000	0.000004	0.000077	0.000064
50742	NaN	4.093567	-0.469435	9.017129	-0.034245	0.132564	0.100310	1.000000	0.000013	0.000071	0.000090
50743	NaN	4.082584	-0.458113	8.998710	-0.024337	0.136002	0.078473	1.000000	-0.000005	0.000065	0.000073
50744	NaN	4.140793	-0.454135	9.003246	-0.014834	0.086039	0.107152	1.000000	0.000002	0.000070	0.000075
50745	NaN	4.183483	-0.492421	8.989100	-0.049158	0.038132	0.114249	1.000000	0.000010	0.000066	0.000081
50746	NaN	4.201395	-0.462208	8.967837	-0.017701	0.015753	0.101288	1.000000	0.000008	0.000059	0.000092
50747	NaN	4.242341	-0.467537	8.943999	-0.019058	-0.031584	0.097399	1.000000	-0.000003	0.000058	0.000077
50748	NaN	4.261985	-0.470375	8.932471	-0.020336	-0.054471	0.095462	1.000000	0.000020	0.000090	0.000077
50749	NaN	4.277936	-0.406874	8.901654	0.043853	-0.076408	0.071541	1.000000	0.000008	0.000049	0.000066
50750	NaN	4.296168	-0.431325	8.940117	0.021127	-0.078171	0.115164	1.000000	-0.000001	0.000063	0.000086
50751	NaN	4.285236	-0.420025	8.921715	0.030709	-0.075629	0.093371	1.000000	0.000008	0.000074	0.000077
50752	NaN	4.293519	-0.432591	8.941328	0.018840	-0.075784	0.115187	1.000000	-0.000003	0.000070	0.000083
50753	NaN	4.250078	-0.428695	8.966236	0.018841	-0.025937	0.119044	1.000000	-0.000011	0.000073	0.000077
50754	NaN	4.239024	-0.417630	8.947874	0.028724	-0.022909	0.097249	1.000000	-0.000009	0.000078	0.000086
50755	NaN	4.210587	-0.470604	8.960927	-0.025783	0.003586	0.099328	1.000000	-0.000028	0.000077	0.000086
50756	NaN	4.163315	-0.455308	9.026369	-0.014847	0.075340	0.137686	1.000000	-0.000002	0.000082	0.000088
50757	NaN	4.134891	-0.453456	8.979613	-0.015758	0.080883	0.083251	1.000000	-0.000014	0.000066	0.000088
50758	NaN	4.151042	-0.445092	9.008510	-0.005758	0.079627	0.115864	1.000000	-0.000001	0.000063	0.000086
50759	NaN	4.161115	-0.436439	8.977967	0.003676	0.057931	0.092154	1.000000	-0.000022	0.000082	0.000088
50760	NaN	4.198147	-0.430658	8.994816	0.013340	0.032342	0.122875	1.000000	-0.000014	0.000066	0.000088
50761	NaN	4.177686	-0.407805	8.957353	0.034453	0.036961	0.079278	1.000000	-0.000018	0.000067	0.000096
50762	NaN	4.201038	-0.477575	8.965039	-0.032337	0.013261	0.099300	1.000000	-0.000026	0.000070	0.000090
50763	NaN	4.194273	-0.434098	8.996458	0.011035	0.036601	0.122863	1.000000	-0.000029	0.000065	0.000080
50764	NaN	4.185141	-0.456475	8.987640	-0.011788	0.039199	0.112018	1.000000	-0.000024	0.000075	0.000099
50765	NaN	4.175989	-0.478744	8.978830	-0.034430	0.041732	0.101168	1.000000	-0.000013	0.000066	0.000088
50766	NaN	4.165113	-0.468036	8.960363	-0.024505	0.044706	0.079367	1.000000	-0.000031	0.000068	0.000118
50767	NaN	4.150605	-0.445906	8.982366	-0.003235	0.069166	0.092082	1.000000	-0.000035	0.000061	0.000078
50768	NaN	4.158867	-0.459150	9.001910	-0.015110	0.069095	0.113862	1.000000	-0.000024	0.000075	0.000099
50769	NaN	4.119095	-0.467130	8.986169	-0.026361	0.097473	0.083079	1.000000	-0.000029	0.000065	0.000080
50770	NaN	4.148444	-0.482658	8.993601	-0.038606	0.073076	0.102985	1.000000	-0.000018	0.000067	0.000096
50771	NaN	4.126121	-0.481411	9.006214	-0.039464	0.098610	0.104835	1.000000	-0.000024	0.000063	0.000094
50772	NaN	4.155434	-0.496918	9.013665	-0.051725	0.074226	0.124744	1.000000	-0.000011	0.000071	0.000097
50773	NaN	4.192715	-0.436393	8.970866	0.011511	0.027321	0.099167	1.000000	-0.000004	0.000078	0.000079
50774	NaN	4.191219	-0.437254	8.971524	0.010532	0.028762	0.099164	1.000000	-0.000017	0.000081	0.000080
50775	NaN	4.191513	-0.471424	8.981741	-0.023358	0.029797	0.110078	1.000000	-0.000018	0.000067	0.000096
50776	NaN	4.192207	-0.450849	8.932201	-0.002877	0.009858	0.064659	1.000000	-0.000011	0.000073	0.000077
50777	NaN	4.179298	-0.461372	8.963882	-0.014999	0.033606	0.088283	1.000000	-0.000022	0.000070	0.000082
50778	NaN	4.176254	-0.429283	8.954854	0.016780	0.035343	0.077372	1.000000	-0.000015	0.000074	0.000084
50779	NaN	4.186031	-0.475449	8.984086	-0.028234	0.034860	0.110049	1.000000	-0.000020	0.000074	0.000092
50780	NaN	4.161931	-0.441182	8.987111	0.003942	0.060937	0.100978	1.000000	-0.000037	0.000066	0.000095
50781	NaN	4.212221	-0.459171	8.982577	-0.009044	0.011925	0.119085	1.000000	-0.000004	0.000078	0.000078
50782	NaN	4.222425	-0.450614	8.952090	0.000508	-0.009519	0.095478	1.000000	-0.000022	0.000067	0.000103
50783	NaN	4.229007	-0.430815	8.962036	0.021000	-0.009460	0.106368	1.000000	-0.000029	0.000063	0.000101
50784	NaN	4.250510	-0.467763	8.960087	-0.013163	-0.032631	0.115432	1.000000	-0.000029	0.000063	0.000101
50785	NaN	4.260852	-0.459773	8.929526	-0.003753	-0.054595	0.091842	1.000000	-0.000046	0.000067	0.000110
50786	NaN	4.236260	-0.480578	8.992243	-0.025833	-0.007350	0.139024	1.000000	-0.000044	0.000074	0.000099
50787	NaN	4.236888	-0.460496	8.942784	-0.005425	-0.027441	0.093668	1.000000	-0.000035	0.000086	0.000089
50788	NaN	4.185407	-0.478088	8.958059	-0.027394	0.023870	0.086388	1.000000	-0.000037	0.000066	0.000095
50789	NaN	4.184193	-0.479551	8.958547	-0.028613	0.025094	0.086382	1.000000	-0.000035	0.000059	0.000099
50790	NaN	4.200131	-0.471827	8.987580	-0.018750	0.023925	0.119050	1.000000	-0.000030	0.000085	0.000082
50791	NaN	4.208085	-0.485229	9.007232	-0.030631	0.023854	0.140812	1.000000	-0.000035	0.000071	0.000105
50792	NaN	4.205128	-0.453606	8.998213	0.001155	0.025520	0.129950	1.000000	-0.000035	0.000071	0.000105
50793	NaN	4.194306	-0.442985	8.979761	0.011392	0.028229	0.108181	1.000000	-0.000035	0.000073	0.000084
50794	NaN	4.183526	-0.432478	8.961288	0.021379	0.031068	0.086413	1.000000	-0.000046	0.000067	0.000110
50795	NaN	4.203151	-0.436663	8.949866	0.020605	0.008096	0.084624	1.000000	-0.000043	0.000087	0.000104
50796	NaN	4.174222	-0.490071	8.962629	-0.034508	0.034895	0.086333	1.000000	-0.000050	0.000070	0.000097
50797	NaN	4.180785	-0.470816	8.972600	-0.012982	0.034776	0.097248	1.000000	-0.000061	0.000066	0.000102
50798	NaN	4.175597	-0.461287	9.013648	-0.002676	0.057972	0.131702	1.000000	-0.000057	0.000076	0.000121
50799	NaN	4.168618	-0.462730	8.954650	-0.003947	0.038732	0.075474	1.000000	-0.000061	0.000066	0.000102
50800	NaN	4.126546	-0.492775	8.988776	-0.036766	0.088704	0.089842	1.000000	-0.000052	0.000075	0.000114
50801	NaN	4.133005	-0.473700	8.998798	-0.015254	0.088686	0.100757	1.000000	-0.000063	0.000072	0.000119
50802	NaN	4.133142	-0.508703	9.008873	-0.049007	0.089990	0.111573	1.000000	-0.000042	0.000067	0.000103
50803	NaN	4.172534	-0.482307	8.975831	-0.017704	0.042537	0.097210	1.000000	-0.000054	0.000071	0.000104
50804	NaN	4.161682	-0.472018	8.957391	-0.007688	0.045328	0.075444	1.000000	-0.000050	0.000082	0.000102
50805	NaN	4.181398	-0.476260	8.945948	-0.009751	0.022210	0.073682	1.000000	-0.000048	0.000063	0.000101
50806	NaN	4.176137	-0.466370	8.987043	0.000561	0.045421	0.108124	1.000000	-0.000039	0.000086	0.000097
50807	NaN	4.147046	-0.519794	8.999696	-0.054225	0.072213	0.109739	1.000000	-0.000059	0.000071	0.000112
50808	NaN	4.161481	-0.479670	9.019214	-0.011618	0.071197	0.131609	1.000000	-0.000059	0.000071	0.000112
50809	NaN	4.129737	-0.467000	9.012660	-0.000900	0.097821	0.111590	1.000000	-0.000059	0.000059	0.000106
50810	NaN	4.151011	-0.504584	9.010681	-0.035166	0.074824	0.120642	1.000000	-0.000054	0.000071	0.000104
50811	NaN	4.161539	-0.496854	8.980140	-0.025527	0.052920	0.097143	1.000000	-0.000051	0.000056	0.000112
50812	NaN	4.208969	-0.449392	8.956689	0.027059	0.004513	0.093820	1.000000	-0.000041	0.000082	0.000087
50813	NaN	4.230192	-0.486948	8.954742	-0.007207	-0.018969	0.102888	1.000000	-0.000066	0.000052	0.000125
50814	NaN	4.222382	-0.411419	8.976667	0.068682	0.004418	0.115736	1.000000	-0.000065	0.000065	0.000130
50815	NaN	4.239448	-0.481886	8.924696	0.000292	-0.039516	0.079419	1.000000	-0.000072	0.000075	0.000113
50816	NaN	4.276348	-0.477907	8.941851	0.009545	-0.064972	0.110413	1.000000	-0.000084	0.000079	0.000115
50817	NaN	4.224686	-0.496200	8.956834	-0.012512	-0.014014	0.102891	1.000000	-0.000067	0.000072	0.000126
50818	NaN	4.173067	-0.514541	8.971766	-0.034233	0.037359	0.095353	1.000000	-0.000087	0.000072	0.000126
50819	NaN	4.121299	-0.532689	8.986752	-0.055826	0.088577	0.087798	1.000000	-0.000052	0.000088	0.000119
50820	NaN	4.068374	-0.517555	8.992151	-0.044700	0.140000	0.069453	1.000000	-0.000081	0.000051	0.000117
50821	NaN	4.106787	-0.546635	9.018699	-0.068685	0.114258	0.111207	1.000000	-0.000061	0.000079	0.000108
50822	NaN	4.111852	-0.494198	9.019384	-0.015078	0.114477	0.111400	1.000000	-0.000034	0.000084	0.000110
50823	NaN	4.122265	-0.486359	8.988968	-0.005565	0.092636	0.087946	1.000000	-0.000057	0.000064	0.000115
50824	NaN	4.134130	-0.512041	8.967944	-0.028853	0.070977	0.075254	1.000000	-0.000070	0.000068	0.000117
50825	NaN	4.165998	-0.463357	9.016131	0.024470	0.067114	0.129936	1.000000	-0.000065	0.000067	0.000109
50826	NaN	4.172510	-0.488384	8.935546	0.000941	0.024881	0.061102	1.000000	-0.000076	0.000063	0.000115
50827	NaN	4.184513	-0.470705	9.005153	0.021618	0.045323	0.128237	1.000000	-0.000091	0.000072	0.000133
50828	NaN	4.166028	-0.482241	8.976997	0.009924	0.049268	0.095505	1.000000	-0.000090	0.000053	0.000132
50829	NaN	4.187278	-0.520736	8.974885	-0.024846	0.026016	0.104557	1.000000	-0.000092	0.000060	0.000128
50830	NaN	4.184841	-0.490121	8.965854	0.006985	0.027430	0.093818	1.000000	-0.000083	0.000059	0.000113
50831	NaN	4.236264	-0.543307	8.970913	-0.039443	-0.021566	0.122925	1.000000	-0.000095	0.000075	0.000120
50832	NaN	4.249460	-0.514536	8.890497	-0.008391	-0.065125	0.054393	1.000000	-0.000089	0.000067	0.000116
50833	NaN	4.318098	-0.558926	8.924171	-0.043584	-0.116437	0.116247	1.000000	-0.000085	0.000067	0.000109
50834	NaN	4.306343	-0.515765	8.896239	-0.000707	-0.113810	0.083813	1.000000	-0.000069	0.000070	0.000096
50835	NaN	4.349644	-0.589404	8.891770	-0.068596	-0.161294	0.101931	1.000000	-0.000063	0.000074	0.000098
50836	NaN	4.366938	-0.527716	8.861611	-0.004547	-0.184309	0.078864	1.000000	-0.000076	0.000078	0.000100
50837	NaN	4.374655	-0.541920	8.881241	-0.016310	-0.184529	0.100607	1.000000	-0.000052	0.000078	0.000092
50838	NaN	4.364010	-0.531284	8.862841	-0.006253	-0.181886	0.078908	1.000000	-0.000039	0.000074	0.000091
50839	NaN	4.316248	-0.516431	8.927859	0.005511	-0.110404	0.116620	1.000000	-0.000062	0.000087	0.000103
50840	NaN	4.276280	-0.524315	8.911802	-0.005577	-0.082146	0.085540	1.000000	-0.000045	0.000082	0.000094
50841	NaN	4.232404	-0.520726	8.936269	-0.006048	-0.032169	0.088839	1.000000	-0.000049	0.000083	0.000102
50842	NaN	4.200418	-0.507646	8.929833	0.004637	-0.005194	0.068764	1.000000	-0.000056	0.000091	0.000105
50843	NaN	4.115458	-0.532078	8.987409	-0.027270	0.093324	0.086007	1.000000	-0.000048	0.000063	0.000100
50844	NaN	4.088874	-0.520078	9.040411	-0.016396	0.140999	0.122012	1.000000	-0.000071	0.000088	0.000118
50845	NaN	4.079147	-0.542883	9.031427	-0.039673	0.143382	0.110957	1.000000	-0.000038	0.000087	0.000096
50846	NaN	4.026206	-0.527028	9.036752	-0.028339	0.194701	0.092476	1.000000	-0.000057	0.000064	0.000115
50847	NaN	4.049971	-0.542927	8.984807	-0.041559	0.149648	0.056440	1.000000	-0.000063	0.000074	0.000098
50848	NaN	4.087929	-0.572011	9.011514	-0.065342	0.124390	0.098216	1.000000	-0.000056	0.000079	0.000100
50849	NaN	4.131776	-0.513705	9.029142	-0.001975	0.097362	0.129716	1.000000	-0.000054	0.000071	0.000104
50850	NaN	4.135498	-0.560123	8.998451	-0.047041	0.077016	0.105984	1.000000	-0.000057	0.000064	0.000115
50851	NaN	4.153179	-0.498323	8.968356	0.016652	0.053557	0.083044	1.000000	-0.000058	0.000072	0.000111
50852	NaN	4.152955	-0.533493	8.978195	-0.017176	0.055119	0.093690	1.000000	-0.000059	0.000059	0.000106
50853	NaN	4.088180	-0.527533	9.014278	-0.015928	0.129459	0.098504	1.000000	-0.000074	0.000071	0.000103
50854	NaN	4.107999	-0.532411	9.002891	-0.017535	0.106537	0.096879	1.000000	-0.000065	0.000065	0.000130
50855	NaN	4.157135	-0.519167	8.989276	0.001338	0.057634	0.104725	1.000000	-0.000087	0.000062	0.000099
50856	NaN	4.172946	-0.556330	8.927631	-0.033247	0.014076	0.057686	1.000000	-0.000069	0.000068	0.000116
50857	NaN	4.231206	-0.555447	8.933044	-0.025122	-0.035785	0.087261	1.000000	-0.000078	0.000057	0.000126
50858	NaN	4.239039	-0.570363	8.952490	-0.037251	-0.035478	0.108965	1.000000	-0.000093	0.000068	0.000123
50859	NaN	4.258838	-0.575506	8.941125	-0.039164	-0.058751	0.107376	1.000000	-0.000074	0.000071	0.000103
50860	NaN	4.248426	-0.565503	8.922599	-0.029038	-0.056199	0.085681	1.000000	-0.000080	0.000064	0.000122
50861	NaN	4.262301	-0.657604	8.920090	-0.118329	-0.077671	0.094261	1.000000	-0.000052	0.000053	0.000081
50862	NaN	4.238803	-0.623254	8.923162	-0.085830	-0.052067	0.085223	1.000000	-0.000034	0.000084	0.000110
50863	NaN	4.258629	-0.627280	8.911863	-0.088575	-0.075308	0.083634	1.000000	-0.000013	0.000052	0.000103
50864	NaN	4.244426	-0.604471	8.933898	-0.067215	-0.050818	0.096297	1.000000	0.000009	0.000062	0.000071
50865	NaN	4.192675	-0.620333	8.948462	-0.088607	0.000452	0.088346	1.000000	0.000013	0.000074	0.000069
50866	NaN	4.169142	-0.584551	8.951642	-0.056080	0.026027	0.079305	1.000000	0.000033	0.000074	0.000070
50867	NaN	4.179763	-0.531420	9.012351	-0.002955	0.046375	0.135837	1.000000	0.000045	0.000090	0.000070
50868	NaN	4.130025	-0.491513	8.967795	0.030184	0.075409	0.072323	1.000000	0.000033	0.000062	0.000064
50869	NaN	4.137769	-0.504070	8.987400	0.018117	0.075494	0.094005	1.000000	0.000009	0.000074	0.000077
50870	NaN	4.123378	-0.481051	9.009508	0.039507	0.099959	0.106654	1.000000	0.000000	0.000063	0.000086
50871	NaN	4.122994	-0.514889	9.019385	0.005778	0.101541	0.117225	1.000000	0.000013	0.000072	0.000090
50872	NaN	4.163111	-0.487924	8.987001	0.036282	0.054004	0.103537	1.000000	-0.000017	0.000067	0.000095
50873	NaN	4.161688	-0.489285	8.987586	0.034996	0.055261	0.103535	1.000000	-0.000041	0.000080	0.000107
50874	NaN	4.152895	-0.544826	8.987828	-0.020564	0.058275	0.102987	1.000000	-0.000025	0.000083	0.000095
50875	NaN	4.193739	-0.551800	8.964827	-0.022921	0.010956	0.099901	1.000000	-0.000047	0.000076	0.000105
50876	NaN	4.171936	-0.583757	8.986546	-0.056086	0.037027	0.111995	1.000000	-0.000028	0.000078	0.000085
50877	NaN	4.170379	-0.585138	8.987179	-0.057464	0.038237	0.111982	1.000000	-0.000030	0.000082	0.000123
50878	NaN	4.187422	-0.489784	8.948096	0.039442	0.014424	0.078776	1.000000	-0.000056	0.000081	0.000079
50879	NaN	4.201511	-0.614694	8.955096	-0.082740	-0.006590	0.097781	1.000000	-0.000036	0.000079	0.000100
50880	NaN	4.129791	-0.496878	9.003758	0.028247	0.088990	0.105024	1.000000	-0.000028	0.000076	0.000106
50881	NaN	4.121905	-0.585676	9.013183	-0.060216	0.092132	0.114975	1.000000	-0.000045	0.000070	0.000088
50882	NaN	4.105774	-0.497129	9.016672	0.026956	0.115947	0.106522	1.000000	-0.000043	0.000075	0.000098
50883	NaN	4.084000	-0.529420	9.038281	-0.006627	0.141778	0.118562	1.000000	-0.000065	0.000068	0.000109
50884	NaN	4.120167	-0.535814	8.955626	-0.009092	0.073493	0.059528	1.000000	-0.000058	0.000072	0.000111
50885	NaN	4.186476	-0.514032	8.971096	0.020149	0.022353	0.100459	1.000000	-0.000056	0.000065	0.000115
50886	NaN	4.207089	-0.552397	8.969105	-0.014472	-0.000236	0.109479	1.000000	-0.000095	0.000076	0.000119
50887	NaN	4.256203	-0.539640	8.955838	0.004563	-0.049073	0.117623	1.000000	-0.000078	0.000072	0.000110
50888	NaN	4.237624	-0.550531	8.927602	-0.006924	-0.045310	0.084813	1.000000	-0.000088	0.000080	0.000121
50889	NaN	4.231987	-0.541911	8.968731	0.002974	-0.022100	0.119131	1.000000	-0.000091	0.000076	0.000112
50890	NaN	4.214185	-0.586227	8.949716	-0.041387	-0.017970	0.096823	1.000000	-0.000091	0.000073	0.000132
50891	NaN	4.233172	-0.558417	8.929224	-0.010507	-0.041589	0.084826	1.000000	-0.000091	0.000076	0.000112
50892	NaN	4.219375	-0.570584	8.960563	-0.021982	-0.016781	0.107979	1.000000	-0.000080	0.000077	0.000127
50893	NaN	4.158374	-0.575974	8.955807	-0.031598	0.035573	0.078118	1.000000	-0.000091	0.000073	0.000132
50894	NaN	4.178172	-0.581244	8.944548	-0.033360	0.012642	0.076631	1.000000	-0.000069	0.000068	0.000116
50895	NaN	4.185603	-0.596024	8.964102	-0.045800	0.012932	0.098285	1.000000	-0.000084	0.000080	0.000114
50896	NaN	4.188237	-0.609467	8.924078	-0.058016	-0.007680	0.063978	1.000000	-0.000062	0.000073	0.000118
50897	NaN	4.182660	-0.600341	8.965188	-0.048774	0.015456	0.098268	1.000000	-0.000058	0.000072	0.000111
50898	NaN	4.151783	-0.620237	8.967681	-0.070668	0.042608	0.088549	1.000000	-0.000051	0.000076	0.000113
50899	NaN	4.129080	-0.619218	8.979986	-0.070988	0.068187	0.089999	1.000000	-0.000043	0.000073	0.000118
50900	NaN	4.157786	-0.636128	8.987791	-0.084008	0.044326	0.110176	1.000000	-0.000032	0.000064	0.000108
50901	NaN	4.113296	-0.598793	9.002592	-0.050908	0.093784	0.102605	1.000000	-0.000047	0.000076	0.000105
50902	NaN	4.133741	-0.636367	9.000614	-0.085593	0.071297	0.111597	1.000000	-0.000021	0.000068	0.000102
50903	NaN	4.110528	-0.601659	9.003665	-0.053372	0.096548	0.102566	1.000000	-0.000041	0.000068	0.000102
50904	NaN	4.137987	-0.551839	8.993081	-0.000612	0.071792	0.101838	1.000000	-0.000021	0.000068	0.000102
50905	NaN	4.166042	-0.535321	8.991731	0.018726	0.047262	0.111581	1.000000	-0.000038	0.000073	0.000111
50906	NaN	4.219498	-0.533045	8.938077	0.026561	-0.023482	0.085609	1.000000	-0.000045	0.000068	0.000109
50907	NaN	4.235400	-0.526573	8.967369	0.035848	-0.024486	0.118461	1.000000	-0.000059	0.000048	0.000099
50908	NaN	4.246584	-0.518989	8.937080	0.045276	-0.046525	0.095390	1.000000	-0.000071	0.000076	0.000112
50909	NaN	4.245687	-0.554726	8.946825	0.010973	-0.044886	0.105837	1.000000	-0.000095	0.000076	0.000119
50910	NaN	4.227256	-0.565826	8.918437	-0.000428	-0.041189	0.072993	1.000000	-0.000100	0.000063	0.000141
50911	NaN	4.212897	-0.545222	8.940456	0.021089	-0.016968	0.085635	1.000000	-0.000110	0.000073	0.000132
50912	NaN	4.211593	-0.548331	8.940880	0.020073	-0.015550	0.085639	1.000000	-0.000117	0.000057	0.000124
50913	NaN	4.232654	-0.620933	8.947884	-0.048043	-0.037586	0.105066	1.000000	-0.000117	0.000069	0.000130
50914	NaN	4.218207	-0.600493	8.969930	-0.026593	-0.013187	0.117701	1.000000	-0.000118	0.000077	0.000126
50915	NaN	4.220773	-0.614704	8.929894	-0.038971	-0.034112	0.083429	1.000000	-0.000114	0.000089	0.000124
50916	NaN	4.231732	-0.608156	8.899674	-0.029549	-0.056180	0.060386	1.000000	-0.000115	0.000062	0.000133
50917	NaN	4.196559	-0.618104	8.942564	-0.040520	-0.007017	0.084834	1.000000	-0.000124	0.000087	0.000108
50918	NaN	4.165841	-0.672181	8.954085	-0.095237	0.020721	0.085403	1.000000	-0.000094	0.000089	0.000124
50919	NaN	4.109068	-0.678741	9.008813	-0.105142	0.094153	0.111219	1.000000	-0.000091	0.000096	0.000113
50920	NaN	4.064772	-0.675538	9.032822	-0.104434	0.144314	0.113986	1.000000	-0.000090	0.000088	0.000117
50921	NaN	4.033154	-0.662375	9.026059	-0.094112	0.170707	0.093715	1.000000	-0.000066	0.000076	0.000104
50922	NaN	4.019049	-0.673983	9.057323	-0.105540	0.195670	0.116698	1.000000	-0.000057	0.000087	0.000095
50923	NaN	3.966238	-0.657208	9.062257	-0.094100	0.246400	0.097807	1.000000	-0.000038	0.000075	0.000090
50924	NaN	4.006963	-0.631229	9.030280	-0.063891	0.198537	0.084619	1.000000	-0.000046	0.000056	0.000103
50925	NaN	4.030945	-0.603930	9.069605	-0.033138	0.196104	0.128713	1.000000	-0.000038	0.000075	0.000090
50926	NaN	4.042650	-0.629068	9.048467	-0.056625	0.174591	0.116049	1.000000	-0.000048	0.000051	0.000094
50927	NaN	4.075211	-0.623861	9.006557	-0.048302	0.127949	0.091650	1.000000	-0.000045	0.000071	0.000088
50928	NaN	4.124679	-0.610504	8.993646	-0.029452	0.079243	0.100144	1.000000	-0.000043	0.000063	0.000092
50929	NaN	4.187122	-0.620711	8.959156	-0.033503	0.007282	0.096025	1.000000	-0.000040	0.000070	0.000081
50930	NaN	4.257810	-0.610163	8.934648	-0.015571	-0.065787	0.103190	1.000000	-0.000040	0.000070	0.000081
50931	NaN	4.299026	-0.617413	8.911850	-0.018471	-0.113350	0.100470	1.000000	-0.000039	0.000063	0.000085
50932	NaN	4.331536	-0.612198	8.870051	-0.009971	-0.159852	0.076152	1.000000	-0.000049	0.000071	0.000095
50933	NaN	4.338643	-0.626513	8.889714	-0.022655	-0.159429	0.097783	1.000000	-0.000054	0.000094	0.000084
50934	NaN	4.362127	-0.608960	8.829082	-0.002841	-0.205158	0.051874	1.000000	-0.000060	0.000080	0.000106
50935	NaN	4.364422	-0.579014	8.880378	0.028579	-0.183208	0.097417	1.000000	-0.000041	0.000103	0.000088
50936	NaN	4.273297	-0.558272	8.968310	0.042333	-0.062190	0.137069	1.000000	-0.000085	0.000088	0.000109
50937	NaN	4.237949	-0.610072	8.920103	-0.012747	-0.056039	0.081620	1.000000	-0.000083	0.000095	0.000098
50938	NaN	4.168166	-0.592724	8.996259	0.000121	0.040631	0.119883	1.000000	-0.000088	0.000081	0.000120
50939	NaN	4.145739	-0.625738	9.017447	-0.032797	0.066919	0.131532	1.000000	-0.000093	0.000069	0.000122
50940	NaN	4.157091	-0.618558	8.987217	-0.023385	0.044748	0.108580	1.000000	-0.000085	0.000056	0.000102
50941	NaN	4.177489	-0.657373	8.984985	-0.058830	0.022239	0.117547	1.000000	-0.000087	0.000059	0.000139
50942	NaN	4.218150	-0.599168	8.944093	0.004196	-0.026415	0.094273	1.000000	-0.000086	0.000063	0.000098
50943	NaN	4.238374	-0.638119	8.941934	-0.031326	-0.048874	0.103250	1.000000	-0.000101	0.000071	0.000137
50944	NaN	4.301053	-0.683081	8.916546	-0.068094	-0.119831	0.109583	1.000000	-0.000088	0.000069	0.000115
50945	NaN	4.274403	-0.714217	8.878006	-0.101602	-0.115082	0.065372	1.000000	-0.000080	0.000065	0.000121
50946	NaN	4.230422	-0.710428	8.901762	-0.100778	-0.064928	0.068009	1.000000	-0.000055	0.000080	0.000099
50947	NaN	4.191194	-0.783855	8.902939	-0.176877	-0.035571	0.056979	1.000000	-0.000047	0.000076	0.000105
50948	NaN	4.180761	-0.730124	8.975784	-0.122632	0.009544	0.115123	1.000000	-0.000027	0.000079	0.000085
50949	NaN	4.119724	-0.733216	8.970616	-0.132797	0.061557	0.084801	1.000000	-0.000012	0.000080	0.000093
50950	NaN	4.117885	-0.700475	8.962313	-0.100860	0.062268	0.074508	1.000000	0.000019	0.000086	0.000067
50951	NaN	4.082063	-0.674175	8.996249	-0.079385	0.110688	0.088408	1.000000	0.000019	0.000083	0.000088
50952	NaN	4.033419	-0.624291	9.051731	-0.034386	0.182310	0.114932	1.000000	0.000014	0.000074	0.000069
50953	NaN	4.044547	-0.615022	9.021801	-0.025254	0.159919	0.092024	1.000000	0.000002	0.000090	0.000076
50954	NaN	4.030074	-0.592027	9.044060	-0.003728	0.184254	0.104623	1.000000	-0.000001	0.000071	0.000082
50955	NaN	4.049880	-0.595910	9.033072	-0.006234	0.161109	0.103312	1.000000	-0.000016	0.000080	0.000100
50956	NaN	4.056592	-0.543043	9.034680	0.047291	0.160308	0.104386	1.000000	-0.000032	0.000069	0.000066
50957	NaN	4.119111	-0.553543	9.000445	0.043049	0.088386	0.100528	1.000000	-0.000060	0.000068	0.000101
50958	NaN	4.168862	-0.541192	8.987718	0.061655	0.039623	0.109309	1.000000	-0.000091	0.000050	0.000120
50959	NaN	4.180336	-0.534316	8.957549	0.070620	0.017112	0.086459	1.000000	-0.000114	0.000077	0.000117
50960	NaN	4.208846	-0.553482	8.965389	0.057209	-0.006511	0.106769	1.000000	-0.000152	0.000054	0.000135
50961	NaN	4.177973	-0.575085	8.967234	0.034810	0.020456	0.096694	1.000000	-0.000162	0.000063	0.000146
50962	NaN	4.214932	-0.607776	8.994038	0.009972	-0.003811	0.138576	1.000000	-0.000168	0.000071	0.000149
50963	NaN	4.209645	-0.676954	8.952643	-0.057596	-0.022634	0.103227	1.000000	-0.000171	0.000065	0.000161
50964	NaN	4.208339	-0.714821	8.961893	-0.091613	-0.020390	0.113430	1.000000	-0.000188	0.000071	0.000149
50965	NaN	4.219745	-0.709590	8.931621	-0.082523	-0.042893	0.090593	1.000000	-0.000169	0.000057	0.000164
50966	NaN	4.210004	-0.734301	8.921836	-0.105123	-0.039993	0.079220	1.000000	-0.000155	0.000070	0.000127
50967	NaN	4.187188	-0.768326	8.942744	-0.138687	-0.013631	0.090651	1.000000	-0.000137	0.000090	0.000130
50968	NaN	4.164315	-0.768453	8.954772	-0.138729	0.012172	0.091886	1.000000	-0.000099	0.000066	0.000120
50969	NaN	4.162998	-0.804470	8.964064	-0.173298	0.014214	0.102046	1.000000	-0.000088	0.000069	0.000114
50970	NaN	4.140235	-0.803485	8.976116	-0.173333	0.040024	0.103267	1.000000	-0.000042	0.000076	0.000097
50971	NaN	4.160058	-0.807891	8.965121	-0.175696	0.016946	0.101999	1.000000	-0.000025	0.000071	0.000088
50972	NaN	4.141590	-0.816366	8.936691	-0.186843	0.020487	0.069030	1.000000	0.000022	0.000090	0.000077
50973	NaN	4.156819	-0.808721	8.966549	-0.177954	0.019680	0.101954	1.000000	0.000032	0.000082	0.000066
50974	NaN	4.134036	-0.771762	8.969935	-0.144988	0.044619	0.092997	1.000000	0.000075	0.000071	0.000034
50975	NaN	4.119865	-0.780363	9.001173	-0.157001	0.069576	0.115750	1.000000	0.000094	0.000069	0.000055
50976	NaN	4.126822	-0.758294	9.012083	-0.136499	0.069542	0.127124	1.000000	0.000111	0.000087	0.000027
50977	NaN	4.074157	-0.670772	8.999225	-0.058352	0.118337	0.087683	1.000000	0.000123	0.000083	0.000026
50978	NaN	4.093978	-0.671705	8.988531	-0.060411	0.095402	0.086443	1.000000	0.000136	0.000079	0.000025
50979	NaN	4.101144	-0.615635	8.990440	-0.007611	0.094192	0.087690	1.000000	0.000126	0.000055	0.000028
50980	NaN	4.150763	-0.632412	8.987221	-0.022185	0.046305	0.106803	1.000000	0.000131	0.000101	0.000013
50981	NaN	4.162069	-0.587558	8.948610	0.019920	0.022837	0.073907	1.000000	0.000084	0.000070	0.000019
50982	NaN	4.199015	-0.548058	8.957930	0.060890	-0.003092	0.095536	1.000000	0.000105	0.000060	0.000044
50983	NaN	4.189306	-0.600771	8.957465	0.005160	0.000558	0.094248	1.000000	0.000069	0.000079	0.000037
50984	NaN	4.196327	-0.579440	8.968254	0.025638	0.000481	0.105671	1.000000	0.000051	0.000072	0.000040
50985	NaN	4.148330	-0.604370	8.941244	-0.006122	0.029627	0.062475	1.000000	0.000036	0.000081	0.000058
50986	NaN	4.163529	-0.629688	8.980079	-0.030115	0.029928	0.105553	1.000000	0.000041	0.000093	0.000057
50987	NaN	4.174831	-0.653191	8.959257	-0.053867	0.008313	0.092926	1.000000	0.000030	0.000077	0.000056
50988	NaN	4.211505	-0.615191	8.968627	-0.012938	-0.017619	0.114600	1.000000	0.000017	0.000081	0.000058
50989	NaN	4.209946	-0.648616	8.978297	-0.047196	-0.015417	0.124702	1.000000	0.000032	0.000082	0.000066
50990	NaN	4.208275	-0.615228	8.970141	-0.015246	-0.014954	0.114601	1.000000	0.000025	0.000100	0.000045
50991	NaN	4.228116	-0.618566	8.959345	-0.017694	-0.038094	0.113424	1.000000	0.000003	0.000058	0.000069
50992	NaN	4.256454	-0.634822	8.967539	-0.031315	-0.061570	0.133789	1.000000	0.000019	0.000086	0.000067
50993	NaN	4.272416	-0.636458	8.897110	-0.032990	-0.106444	0.076942	1.000000	-0.000001	0.000073	0.000061
50994	NaN	4.249633	-0.633948	8.909231	-0.032977	-0.080667	0.078120	1.000000	-0.000007	0.000081	0.000064
50995	NaN	4.243540	-0.623581	8.950537	-0.022945	-0.057032	0.112272	1.000000	0.000004	0.000085	0.000059
50996	NaN	4.203857	-0.629068	8.933535	-0.032933	-0.029238	0.080454	1.000000	-0.000027	0.000079	0.000084
50997	NaN	4.231928	-0.645767	8.941838	-0.046229	-0.052753	0.100827	1.000000	0.000003	0.000093	0.000055
50998	NaN	4.187527	-0.640100	8.965517	-0.045118	-0.002608	0.103137	1.000000	-0.000002	0.000091	0.000083
50999	NaN	4.177591	-0.628091	8.947149	-0.034664	-0.000803	0.081606	1.000000	-0.000010	0.000074	0.000076
51000	NaN	4.184487	-0.641812	8.966814	-0.047221	0.000112	0.103127	1.000000	-0.000018	0.000076	0.000090
51001	NaN	4.127293	-0.646132	9.020834	-0.056463	0.074020	0.128078	1.000000	-0.000011	0.000082	0.000072
51002	NaN	4.125802	-0.613720	9.012543	-0.024489	0.074432	0.118007	1.000000	-0.000020	0.000083	0.000086
51003	NaN	4.154018	-0.630753	9.020756	-0.038535	0.050812	0.138377	1.000000	-0.000027	0.000067	0.000079
51004	NaN	4.178613	-0.612765	8.960349	-0.018734	0.004476	0.093057	1.000000	-0.000035	0.000080	0.000099
51005	NaN	4.176910	-0.613962	8.961061	-0.019947	0.005745	0.093054	1.000000	-0.000019	0.000098	0.000071
51006	NaN	4.196449	-0.618428	8.950389	-0.022096	-0.017205	0.091923	1.000000	-0.000050	0.000092	0.000096
51007	NaN	4.181856	-0.596356	8.972607	-0.000958	0.006878	0.104530	1.000000	-0.000044	0.000084	0.000093
51008	NaN	4.150384	-0.615571	8.974563	-0.022397	0.034156	0.094165	1.000000	-0.000065	0.000089	0.000109
51009	NaN	4.170036	-0.620856	8.963787	-0.025132	0.010969	0.093038	1.000000	-0.000072	0.000085	0.000107
51010	NaN	4.155346	-0.632806	8.994855	-0.036607	0.036287	0.115661	1.000000	-0.000083	0.000082	0.000112
51011	NaN	4.196428	-0.641457	8.972624	-0.039770	-0.011101	0.113427	1.000000	-0.000068	0.000082	0.000120
51012	NaN	4.186368	-0.664180	8.963077	-0.062311	-0.008176	0.101928	1.000000	-0.000074	0.000080	0.000097
51013	NaN	4.205932	-0.669290	8.952367	-0.064698	-0.031277	0.100815	1.000000	-0.000049	0.000105	0.000102
51014	NaN	4.217237	-0.661496	8.922612	-0.055332	-0.053778	0.078203	1.000000	-0.000055	0.000078	0.000119
51015	NaN	4.232357	-0.655886	8.952424	-0.046039	-0.054315	0.111216	1.000000	-0.000072	0.000085	0.000107
51016	NaN	4.222400	-0.645190	8.934015	-0.035552	-0.052459	0.089714	1.000000	-0.000065	0.000089	0.000109
51017	NaN	4.215997	-0.636461	8.975298	-0.025924	-0.028794	0.123821	1.000000	-0.000074	0.000093	0.000103
51018	NaN	4.155026	-0.606707	8.960621	-0.001622	0.022208	0.082997	1.000000	-0.000085	0.000089	0.000108
51019	NaN	4.166081	-0.633030	8.939741	-0.025225	0.000683	0.070393	1.000000	-0.000099	0.000099	0.000126
51020	NaN	4.159625	-0.624927	8.980992	-0.015231	0.024530	0.104490	1.000000	-0.000096	0.000086	0.000113
51021	NaN	4.127911	-0.644913	8.982863	-0.037039	0.051620	0.094045	1.000000	-0.000097	0.000106	0.000115
51022	NaN	4.120905	-0.670118	9.033097	-0.060078	0.076580	0.138106	1.000000	-0.000101	0.000109	0.000102
51023	NaN	4.115553	-0.671089	8.974038	-0.060840	0.055812	0.082497	1.000000	-0.000129	0.000075	0.000129
51024	NaN	4.109515	-0.630106	9.006319	-0.017805	0.078563	0.106609	1.000000	-0.000113	0.000091	0.000122
51025	NaN	4.099222	-0.653694	8.996716	-0.040417	0.081367	0.095066	1.000000	-0.000117	0.000091	0.000129
51026	NaN	4.097792	-0.623658	8.988432	-0.008419	0.081659	0.085091	1.000000	-0.000135	0.000084	0.000132
51027	NaN	4.146650	-0.679934	8.994137	-0.056687	0.034927	0.114401	1.000000	-0.000141	0.000092	0.000136
51028	NaN	4.158178	-0.673863	8.964238	-0.047315	0.012371	0.091842	1.000000	-0.000144	0.000075	0.000121
51029	NaN	4.186592	-0.660316	8.963524	-0.028440	-0.012270	0.102320	1.000000	-0.000155	0.000071	0.000126
51030	NaN	4.142185	-0.657769	8.986706	-0.027176	0.037875	0.104422	1.000000	-0.000150	0.000093	0.000150
51031	NaN	4.140061	-0.695074	8.996015	-0.061582	0.040281	0.114351	1.000000	-0.000150	0.000081	0.000145
51032	NaN	4.138794	-0.665686	8.987685	-0.029588	0.040550	0.104405	1.000000	-0.000165	0.000080	0.000137
51033	NaN	4.158152	-0.706476	8.985551	-0.065111	0.018602	0.113282	1.000000	-0.000170	0.000081	0.000144
51034	NaN	4.127087	-0.694590	8.978243	-0.053397	0.044749	0.092831	1.000000	-0.000175	0.000069	0.000146
51035	NaN	4.103817	-0.729048	8.998669	-0.086058	0.071655	0.103780	1.000000	-0.000168	0.000073	0.000148
51036	NaN	4.094200	-0.720359	8.979983	-0.075505	0.073432	0.082281	1.000000	-0.000175	0.000069	0.000146
51037	NaN	4.100765	-0.737292	8.999388	-0.088507	0.074337	0.103738	1.000000	-0.000145	0.000082	0.000117
51038	NaN	4.099596	-0.707513	8.991114	-0.056502	0.074576	0.093807	1.000000	-0.000133	0.000074	0.000156
51039	NaN	4.106647	-0.690939	9.001808	-0.036682	0.074235	0.105358	1.000000	-0.000155	0.000069	0.000146
51040	NaN	4.161187	-0.691649	8.949206	-0.029696	0.002898	0.080809	1.000000	-0.000157	0.000077	0.000142
51041	NaN	4.154396	-0.718498	8.998962	-0.053017	0.027882	0.124765	1.000000	-0.000161	0.000078	0.000150
51042	NaN	4.144806	-0.709669	8.980319	-0.042458	0.029633	0.103285	1.000000	-0.000166	0.000066	0.000151
51043	NaN	4.134825	-0.734193	8.970300	-0.065376	0.032392	0.091694	1.000000	-0.000151	0.000067	0.000159
51044	NaN	4.133382	-0.738374	8.970622	-0.066431	0.033818	0.091682	1.000000	-0.000175	0.000069	0.000145
51045	NaN	4.123444	-0.762963	8.960541	-0.089237	0.036603	0.080082	1.000000	-0.000160	0.000058	0.000148
51046	NaN	4.194780	-0.756593	8.937252	-0.072494	-0.036601	0.088650	1.000000	-0.000172	0.000074	0.000155
51047	NaN	4.236639	-0.733940	8.906338	-0.043368	-0.085327	0.076775	1.000000	-0.000158	0.000062	0.000157
51048	NaN	4.255419	-0.808088	8.912613	-0.111784	-0.105771	0.095521	1.000000	-0.000150	0.000081	0.000144
51049	NaN	4.262245	-0.791513	8.923505	-0.091763	-0.106039	0.107116	1.000000	-0.000140	0.000092	0.000135
51050	NaN	4.226346	-0.768222	8.957014	-0.068971	-0.057424	0.120701	1.000000	-0.000133	0.000076	0.000136
51051	NaN	4.221050	-0.802605	8.906311	-0.102641	-0.077079	0.075049	1.000000	-0.000130	0.000061	0.000143
51052	NaN	4.214070	-0.828660	8.956046	-0.125776	-0.051843	0.118945	1.000000	-0.000090	0.000096	0.000132
51053	NaN	4.269129	-0.794877	8.895156	-0.086519	-0.124743	0.084688	1.000000	-0.000116	0.000072	0.000127
51054	NaN	4.216113	-0.811440	8.907849	-0.106551	-0.073035	0.075038	1.000000	-0.000080	0.000087	0.000121
51055	NaN	4.196312	-0.813479	8.979322	-0.107708	-0.025181	0.131495	1.000000	-0.000101	0.000072	0.000135
51056	NaN	4.217249	-0.752535	8.951518	-0.043878	-0.050690	0.110855	1.000000	-0.000071	0.000096	0.000132
51057	NaN	4.219636	-0.798810	8.919993	-0.089310	-0.070606	0.086643	1.000000	-0.000074	0.000079	0.000117
51058	NaN	4.214516	-0.723770	8.944188	-0.013242	-0.049220	0.101035	1.000000	-0.000072	0.000084	0.000127
51059	NaN	4.182945	-0.743232	8.945550	-0.034736	-0.021995	0.090373	1.000000	-0.000083	0.000068	0.000126
51060	NaN	4.181963	-0.712413	8.937586	-0.002729	-0.021882	0.080558	1.000000	-0.000090	0.000096	0.000132
51061	NaN	4.157561	-0.778835	8.966424	-0.069446	0.006343	0.101131	1.000000	-0.000099	0.000065	0.000139
51062	NaN	4.117909	-0.785738	8.948771	-0.078990	0.033931	0.068996	1.000000	-0.000110	0.000094	0.000151
51063	NaN	4.102643	-0.798529	8.979575	-0.091220	0.059236	0.091365	1.000000	-0.000091	0.000084	0.000126
51064	NaN	4.084361	-0.808330	8.950677	-0.102002	0.062458	0.058266	1.000000	-0.000087	0.000081	0.000139
51065	NaN	4.120734	-0.807224	8.969346	-0.095378	0.037474	0.090379	1.000000	-0.000089	0.000076	0.000130
51066	NaN	4.149216	-0.792842	8.969061	-0.076320	0.012976	0.101074	1.000000	-0.000074	0.000077	0.000138
51067	NaN	4.163378	-0.821672	9.007537	-0.101364	0.013784	0.143924	1.000000	-0.000080	0.000087	0.000121
51068	NaN	4.158535	-0.821096	8.948490	-0.101731	-0.007152	0.088458	1.000000	-0.000056	0.000086	0.000114
51069	NaN	4.173598	-0.816185	8.978444	-0.093921	-0.007764	0.121529	1.000000	-0.000081	0.000062	0.000110
51070	NaN	4.176993	-0.828779	8.938213	-0.105982	-0.028914	0.087501	1.000000	-0.000050	0.000076	0.000131
51071	NaN	4.205492	-0.813672	8.938041	-0.087727	-0.053609	0.098227	1.000000	-0.000035	0.000079	0.000119
51072	NaN	4.212635	-0.794953	8.949125	-0.067424	-0.053757	0.109895	1.000000	-0.000033	0.000073	0.000102
51073	NaN	4.194582	-0.803521	8.920228	-0.078777	-0.050782	0.076794	1.000000	-0.000037	0.000074	0.000110
51074	NaN	4.141533	-0.818595	8.932777	-0.098627	0.000956	0.066947	1.000000	-0.000031	0.000078	0.000112
51075	NaN	4.083569	-0.823183	8.986041	-0.107688	0.075164	0.091092	1.000000	-0.000035	0.000081	0.000099
51076	NaN	4.081850	-0.824642	8.986688	-0.108753	0.076599	0.091069	1.000000	-0.000030	0.000091	0.000117
51077	NaN	4.102255	-0.795916	8.967729	-0.078325	0.052144	0.080406	1.000000	-0.000019	0.000094	0.000112
51078	NaN	4.044051	-0.800363	9.021062	-0.087150	0.126500	0.104514	1.000000	-0.000036	0.000089	0.000095
51079	NaN	4.051042	-0.781678	9.032210	-0.067625	0.126047	0.116175	1.000000	-0.000043	0.000082	0.000113
51080	NaN	3.997860	-0.796973	9.044695	-0.087392	0.177801	0.106249	1.000000	-0.000054	0.000079	0.000118
51081	NaN	4.009792	-0.788996	9.015088	-0.078958	0.154670	0.083908	1.000000	-0.000048	0.000083	0.000120
51082	NaN	4.017722	-0.737237	9.017756	-0.025546	0.153019	0.085871	1.000000	-0.000059	0.000080	0.000125
51083	NaN	4.066675	-0.759379	9.014895	-0.041771	0.105294	0.105478	1.000000	-0.000069	0.000091	0.000115
51084	NaN	4.090435	-0.808658	8.971988	-0.088273	0.061229	0.080270	1.000000	-0.000057	0.000074	0.000109
51085	NaN	4.119975	-0.760683	8.963394	-0.036743	0.034989	0.081386	1.000000	-0.000081	0.000071	0.000156
51086	NaN	4.147560	-0.779906	8.971692	-0.050929	0.011936	0.101899	1.000000	-0.000084	0.000090	0.000107
51087	NaN	4.180203	-0.809468	8.939216	-0.076892	-0.033945	0.088416	1.000000	-0.000084	0.000053	0.000141
51088	NaN	4.148639	-0.828828	8.940278	-0.097964	-0.006534	0.077564	1.000000	-0.000078	0.000080	0.000124
51089	NaN	4.176243	-0.847891	8.948568	-0.112517	-0.029787	0.098077	1.000000	-0.000070	0.000076	0.000130
51090	NaN	4.183391	-0.829937	8.959662	-0.092255	-0.029979	0.109796	1.000000	-0.000069	0.000079	0.000110
51091	NaN	4.202290	-0.868948	8.957396	-0.128656	-0.051588	0.118579	1.000000	-0.000061	0.000075	0.000116
51092	NaN	4.180343	-0.833921	8.960714	-0.095250	-0.027335	0.109775	1.000000	-0.000044	0.000070	0.000107
51093	NaN	4.098094	-0.832123	8.965248	-0.102301	0.048603	0.079211	1.000000	-0.000029	0.000071	0.000115
51094	NaN	4.095666	-0.867270	8.974125	-0.136493	0.051601	0.088841	1.000000	-0.000059	0.000070	0.000099
51095	NaN	4.102985	-0.848423	8.985229	-0.116864	0.051182	0.100555	1.000000	-0.000005	0.000072	0.000089
51096	NaN	4.124050	-0.819365	8.966222	-0.086238	0.026680	0.090047	1.000000	-0.000023	0.000064	0.000092
51097	NaN	4.144207	-0.823916	8.955541	-0.089482	0.003472	0.089180	1.000000	-0.000014	0.000061	0.000098
51098	NaN	4.181844	-0.788061	8.966058	-0.049320	-0.022758	0.111833	1.000000	-0.000016	0.000069	0.000094
51099	NaN	4.192988	-0.812891	8.944918	-0.073794	-0.044238	0.099229	1.000000	-0.000028	0.000085	0.000100
51100	NaN	4.230625	-0.777469	8.955426	-0.033658	-0.070478	0.121909	1.000000	-0.000046	0.000045	0.000096
51101	NaN	4.169024	-0.812305	8.956997	-0.074870	-0.017286	0.100056	1.000000	-0.000024	0.000072	0.000088
51102	NaN	4.123647	-0.840186	8.988219	-0.106203	0.034490	0.111324	1.000000	-0.000029	0.000071	0.000115
51103	NaN	4.062819	-0.841495	8.981511	-0.114766	0.086014	0.079814	1.000000	-0.000028	0.000073	0.000095
51104	NaN	4.031110	-0.859356	8.982626	-0.135713	0.113474	0.068842	1.000000	-0.000017	0.000076	0.000090
51105	NaN	4.023619	-0.883486	9.032245	-0.159097	0.139113	0.112374	1.000000	-0.000011	0.000068	0.000086
51106	NaN	4.057381	-0.877776	8.991574	-0.151284	0.091855	0.089328	1.000000	0.000011	0.000075	0.000076
51107	NaN	4.108793	-0.831514	8.972107	-0.101801	0.040975	0.089850	1.000000	0.000014	0.000059	0.000084
51108	NaN	4.142662	-0.825335	8.931467	-0.094013	-0.006305	0.066840	1.000000	0.000031	0.000077	0.000057
51109	NaN	4.136423	-0.815295	8.972724	-0.084821	0.017449	0.100787	1.000000	0.000001	0.000051	0.000080
51110	NaN	4.164315	-0.832508	8.981090	-0.099215	-0.005467	0.121329	1.000000	0.000020	0.000073	0.000062
51111	NaN	4.082151	-0.829192	8.985503	-0.105794	0.070406	0.090576	1.000000	0.000016	0.000064	0.000093
51112	NaN	4.058271	-0.859556	9.005550	-0.138515	0.097910	0.100917	1.000000	0.000017	0.000066	0.000073
51113	NaN	4.043152	-0.869564	9.036224	-0.150739	0.123429	0.123036	1.000000	0.000032	0.000067	0.000081
51114	NaN	4.080859	-0.832696	9.046915	-0.110720	0.097111	0.145815	1.000000	0.000041	0.000065	0.000067
51115	NaN	4.084505	-0.842845	9.006851	-0.123582	0.075664	0.111825	1.000000	0.000039	0.000073	0.000063
51116	NaN	4.118561	-0.836393	8.966209	-0.115856	0.028350	0.088867	1.000000	0.000033	0.000049	0.000059
51117	NaN	4.147706	-0.819558	8.966228	-0.097737	0.003459	0.099872	1.000000	0.000049	0.000062	0.000073
51118	NaN	4.154196	-0.832706	8.985757	-0.110680	0.004941	0.121209	1.000000	0.000035	0.000054	0.000068
51119	NaN	4.166805	-0.822665	8.956252	-0.102009	-0.018258	0.099061	1.000000	0.000052	0.000069	0.000062
51120	NaN	4.188180	-0.792336	8.937383	-0.071503	-0.042961	0.088752	1.000000	0.000043	0.000060	0.000050
51121	NaN	4.207230	-0.828961	8.935284	-0.107727	-0.064183	0.097486	1.000000	0.000052	0.000069	0.000061
51122	NaN	4.185729	-0.791532	8.938603	-0.074158	-0.040190	0.088745	1.000000	0.000051	0.000056	0.000056
51123	NaN	4.222514	-0.787786	8.957654	-0.067556	-0.064979	0.121144	1.000000	0.000051	0.000056	0.000056
51124	NaN	4.182326	-0.824167	8.948110	-0.109688	-0.035750	0.098239	1.000000	0.000043	0.000060	0.000050
51125	NaN	4.159737	-0.820059	8.959776	-0.109733	-0.010219	0.098990	1.000000	0.000070	0.000056	0.000057
51126	NaN	4.157419	-0.852877	8.968760	-0.143982	-0.006966	0.108472	1.000000	0.000062	0.000058	0.000071
51127	NaN	4.201481	-0.792222	8.930447	-0.082286	-0.058017	0.087960	1.000000	0.000087	0.000071	0.000050
51128	NaN	4.229272	-0.807890	8.939082	-0.096834	-0.080845	0.108537	1.000000	0.000093	0.000063	0.000047
51129	NaN	4.284855	-0.804075	8.887536	-0.091207	-0.152796	0.084946	1.000000	0.000088	0.000064	0.000054
51130	NaN	4.293653	-0.749516	8.890371	-0.037911	-0.154968	0.087337	1.000000	0.000069	0.000064	0.000053
51131	NaN	4.270739	-0.745211	8.902198	-0.037773	-0.129394	0.088096	1.000000	0.000071	0.000089	0.000064
51132	NaN	4.195039	-0.787618	8.933883	-0.088559	-0.051311	0.087943	1.000000	0.000050	0.000042	0.000071
51133	NaN	4.206619	-0.810854	8.912790	-0.112977	-0.072725	0.075331	1.000000	0.000075	0.000066	0.000076
51134	NaN	4.192842	-0.786474	8.935015	-0.091230	-0.048704	0.087932	1.000000	0.000057	0.000048	0.000053
51135	NaN	4.182869	-0.805850	8.925049	-0.113772	-0.045662	0.076056	1.000000	0.000082	0.000072	0.000057
51136	NaN	4.219449	-0.801632	8.944285	-0.107119	-0.070203	0.108512	1.000000	0.000077	0.000060	0.000059
51137	NaN	4.158974	-0.800385	8.937400	-0.114615	-0.018648	0.076767	1.000000	0.000085	0.000057	0.000065
51138	NaN	4.143956	-0.809188	8.968073	-0.126005	0.007279	0.098799	1.000000	0.000070	0.000056	0.000057
51139	NaN	4.151724	-0.788044	8.979217	-0.106152	0.006812	0.110661	1.000000	0.000087	0.000051	0.000048
51140	NaN	4.104097	-0.810366	8.950621	-0.136237	0.035956	0.066284	1.000000	0.000081	0.000047	0.000046
51141	NaN	4.114446	-0.791663	9.021415	-0.117548	0.058389	0.133372	1.000000	0.000101	0.000049	0.000027
51142	NaN	4.089588	-0.783837	8.973314	-0.116079	0.061239	0.078838	1.000000	0.000096	0.000048	0.000054
51143	NaN	4.053264	-0.788464	9.014966	-0.126217	0.111290	0.101541	1.000000	0.000105	0.000046	0.000040
51144	NaN	4.053619	-0.753600	9.007008	-0.094147	0.110750	0.092100	1.000000	0.000096	0.000048	0.000054
51145	NaN	4.069080	-0.745465	9.037126	-0.086083	0.110505	0.125278	1.000000	0.000089	0.000044	0.000052
51146	NaN	4.096068	-0.725060	8.977459	-0.066637	0.062838	0.081243	1.000000	0.000081	0.000047	0.000046
51147	NaN	4.116661	-0.727573	8.966933	-0.069630	0.039662	0.080529	1.000000	0.000089	0.000044	0.000052
51148	NaN	4.153659	-0.723582	8.985969	-0.063080	0.015144	0.113031	1.000000	0.000054	0.000039	0.000084
51149	NaN	4.174156	-0.726833	8.975440	-0.065953	-0.008095	0.112330	1.000000	0.000062	0.000058	0.000071
51150	NaN	4.207132	-0.753766	8.943454	-0.091649	-0.053576	0.099034	1.000000	0.000058	0.000061	0.000058
51151	NaN	4.219933	-0.743713	8.913957	-0.082947	-0.077043	0.077042	1.000000	0.000043	0.000060	0.000050
51152	NaN	4.213667	-0.732821	8.955140	-0.073084	-0.052861	0.110941	1.000000	0.000047	0.000057	0.000063
51153	NaN	4.185971	-0.793100	8.924102	-0.138103	-0.046221	0.075171	1.000000	0.000041	0.000066	0.000066
51154	NaN	4.202439	-0.752516	8.945765	-0.096764	-0.048429	0.099012	1.000000	0.000047	0.000057	0.000063
51155	NaN	4.163414	-0.755529	8.927728	-0.105724	-0.021266	0.066459	1.000000	0.000041	0.000066	0.000066
51156	NaN	4.168459	-0.802070	8.955886	-0.151950	-0.017531	0.097099	1.000000	0.000033	0.000049	0.000059
51157	NaN	4.154625	-0.777753	8.978009	-0.130412	0.006218	0.109681	1.000000	0.000064	0.000075	0.000036
51158	NaN	4.122762	-0.793559	8.979231	-0.151022	0.033809	0.098394	1.000000	0.000056	0.000089	0.000056
51159	NaN	4.113791	-0.779515	8.960892	-0.140534	0.034737	0.077083	1.000000	0.000080	0.000067	0.000048
51160	NaN	4.091039	-0.774822	8.972539	-0.139906	0.060499	0.077721	1.000000	0.000069	0.000066	0.000032
51161	NaN	4.040259	-0.789154	9.044333	-0.159860	0.135239	0.122230	1.000000	0.000081	0.000070	0.000027
51162	NaN	3.987068	-0.800800	9.056461	-0.178676	0.187191	0.111551	1.000000	0.000079	0.000075	0.000044
51163	NaN	3.904744	-0.795462	9.060517	-0.184094	0.263003	0.080224	1.000000	0.000088	0.000086	0.000035
51164	NaN	3.899556	-0.750072	9.093239	-0.140995	0.285076	0.104721	1.000000	0.000090	0.000058	0.000037
51165	NaN	3.951502	-0.702415	9.073912	-0.091195	0.233601	0.106019	1.000000	0.000102	0.000074	0.000038
51166	NaN	4.023461	-0.691988	9.052261	-0.076364	0.160134	0.116011	1.000000	0.000072	0.000073	0.000021
51167	NaN	4.050317	-0.672132	8.992728	-0.057132	0.111961	0.072159	1.000000	0.000051	0.000057	0.000056
51168	NaN	4.078071	-0.688460	9.001481	-0.071977	0.089340	0.092773	1.000000	0.000057	0.000071	0.000034
51169	NaN	4.067986	-0.708153	8.991566	-0.093959	0.092437	0.080789	1.000000	0.000038	0.000061	0.000057
51170	NaN	4.029791	-0.747127	9.041764	-0.136631	0.145056	0.112594	1.000000	0.000037	0.000069	0.000053
51171	NaN	4.018193	-0.800164	9.040509	-0.192443	0.150270	0.109879	1.000000	0.000064	0.000075	0.000036
51172	NaN	3.965040	-0.811924	9.052537	-0.211121	0.202251	0.099109	1.000000	0.000078	0.000063	0.000038
51173	NaN	3.954977	-0.830882	9.042670	-0.233407	0.205366	0.087082	1.000000	0.000089	0.000066	0.000033
51174	NaN	3.964186	-0.775713	9.045153	-0.180115	0.202679	0.089725	1.000000	0.000117	0.000042	0.000039
51175	NaN	4.045230	-0.744347	9.034074	-0.144325	0.127149	0.111800	1.000000	0.000145	0.000083	0.000008
51176	NaN	4.109799	-0.719780	8.993470	-0.117701	0.053301	0.100654	1.000000	0.000128	0.000068	0.000015
51177	NaN	4.174512	-0.695414	8.952799	-0.090924	-0.020839	0.089537	1.000000	0.000128	0.000068	0.000015
51178	NaN	4.269577	-0.654689	8.911709	-0.045010	-0.120950	0.089828	1.000000	0.000124	0.000068	0.000022
51179	NaN	4.298658	-0.636354	8.912032	-0.026971	-0.146007	0.101226	1.000000	0.000115	0.000070	0.000036
51180	NaN	4.317577	-0.671998	8.910470	-0.063134	-0.166658	0.109901	1.000000	0.000094	0.000056	0.000050
51181	NaN	4.300148	-0.677854	8.881482	-0.073374	-0.163742	0.076665	1.000000	0.000076	0.000070	0.000034
51182	NaN	4.336592	-0.673676	8.900937	-0.067196	-0.188189	0.109339	1.000000	0.000068	0.000072	0.000049
51183	NaN	4.304975	-0.689199	8.902038	-0.087533	-0.160554	0.097946	1.000000	0.000078	0.000063	0.000038
51184	NaN	4.316361	-0.712195	8.881366	-0.111701	-0.181576	0.085364	1.000000	0.000074	0.000076	0.000051
51185	NaN	4.325269	-0.657709	8.883885	-0.058392	-0.184435	0.088147	1.000000	0.000072	0.000071	0.000042
51186	NaN	4.331341	-0.669967	8.903773	-0.071547	-0.182621	0.109413	1.000000	0.000072	0.000071	0.000042
51187	NaN	4.290931	-0.705924	8.894347	-0.113102	-0.153013	0.085981	1.000000	0.000051	0.000057	0.000056
51188	NaN	4.262835	-0.690746	8.946425	-0.101336	-0.104430	0.120401	1.000000	0.000070	0.000077	0.000058
51189	NaN	4.210824	-0.669345	8.949797	-0.086813	-0.054833	0.100303	1.000000	0.000052	0.000092	0.000042
51190	NaN	4.229362	-0.705819	8.948410	-0.123006	-0.075411	0.108951	1.000000	0.000068	0.000072	0.000049
51191	NaN	4.163534	-0.693900	8.981650	-0.118173	-0.001033	0.110648	1.000000	0.000047	0.000058	0.000063
51192	NaN	4.163743	-0.660272	8.973532	-0.086093	-0.001995	0.101423	1.000000	0.000039	0.000074	0.000062
51193	NaN	4.148285	-0.669440	9.004204	-0.097081	0.024043	0.123213	1.000000	0.000038	0.000061	0.000057
51194	NaN	4.138133	-0.689505	8.994348	-0.119344	0.027381	0.111166	1.000000	0.000035	0.000075	0.000069
51195	NaN	4.138305	-0.656064	8.986230	-0.086829	0.026320	0.101953	1.000000	0.000034	0.000062	0.000064
51196	NaN	4.085191	-0.668570	8.998030	-0.105249	0.078326	0.091003	1.000000	0.000034	0.000062	0.000064
51197	NaN	4.083923	-0.668475	8.998612	-0.106020	0.079734	0.090984	1.000000	0.000033	0.000070	0.000060
51198	NaN	4.089985	-0.681787	9.018386	-0.119158	0.081616	0.112192	1.000000	0.000010	0.000063	0.000070
51199	NaN	4.077499	-0.624595	9.031543	-0.063387	0.102918	0.115569	1.000000	0.000024	0.000073	0.000054
51200	NaN	4.067300	-0.645108	9.021661	-0.085625	0.106269	0.103503	1.000000	-0.000002	0.000067	0.000071
51201	NaN	4.074891	-0.625672	9.032646	-0.065487	0.105714	0.115526	1.000000	-0.000010	0.000061	0.000090
51202	NaN	4.034458	-0.663198	9.023005	-0.106919	0.135353	0.091935	1.000000	-0.000016	0.000057	0.000087
51203	NaN	4.040604	-0.677423	9.042660	-0.119896	0.137252	0.113131	1.000000	-0.000025	0.000061	0.000081
51204	NaN	4.052010	-0.702552	9.021839	-0.144076	0.116289	0.100519	1.000000	-0.000026	0.000068	0.000077
51205	NaN	4.072354	-0.707595	9.011453	-0.147029	0.093449	0.099966	1.000000	-0.000038	0.000052	0.000077
51206	NaN	4.062374	-0.729017	9.001379	-0.169258	0.096820	0.087876	1.000000	-0.000021	0.000058	0.000095
51207	NaN	4.100390	-0.693434	9.012010	-0.129954	0.069801	0.111456	1.000000	-0.000007	0.000068	0.000078
51208	NaN	4.084861	-0.703608	9.042562	-0.141141	0.096071	0.133162	1.000000	-0.000010	0.000061	0.000089
51209	NaN	4.135289	-0.656285	8.963430	-0.090730	0.020865	0.080024	1.000000	-0.000016	0.000059	0.000067
51210	NaN	4.132624	-0.690496	8.972591	-0.125029	0.024778	0.089156	1.000000	-0.000014	0.000051	0.000071
51211	NaN	4.153097	-0.695381	8.962190	-0.127891	0.001841	0.088639	1.000000	-0.000032	0.000057	0.000079
51212	NaN	4.126543	-0.648498	9.005268	-0.082759	0.047948	0.113773	1.000000	-0.000022	0.000066	0.000091
51213	NaN	4.116376	-0.669926	8.995275	-0.104475	0.051189	0.101686	1.000000	-0.000037	0.000065	0.000082
51214	NaN	4.077568	-0.674281	8.976791	-0.112615	0.078341	0.068870	1.000000	-0.000022	0.000045	0.000089
51215	NaN	4.130406	-0.665640	9.025753	-0.097768	0.052619	0.134937	1.000000	-0.000048	0.000052	0.000112
51216	NaN	4.096949	-0.681267	8.966737	-0.116948	0.056855	0.068333	1.000000	-0.000049	0.000062	0.000087
51217	NaN	4.237419	-0.655040	8.963866	-0.076738	-0.068823	0.123361	1.000000	-0.000060	0.000058	0.000092
51218	NaN	4.228974	-0.643825	8.945075	-0.065772	-0.068002	0.102157	1.000000	-0.000069	0.000060	0.000107
51219	NaN	4.292309	-0.657534	8.913154	-0.072695	-0.139613	0.100728	1.000000	-0.000063	0.000072	0.000105
51220	NaN	4.341439	-0.680820	8.911183	-0.089965	-0.186269	0.120993	1.000000	-0.000093	0.000049	0.000108
51221	NaN	4.345754	-0.694031	8.871014	-0.101492	-0.207718	0.087248	1.000000	-0.000065	0.000057	0.000120
51222	NaN	4.360576	-0.689289	8.901216	-0.093607	-0.207710	0.120564	1.000000	-0.000068	0.000073	0.000112
51223	NaN	4.364508	-0.702394	8.861245	-0.105449	-0.229186	0.086823	1.000000	-0.000080	0.000077	0.000113
51224	NaN	4.348677	-0.714098	8.891785	-0.116636	-0.202842	0.108502	1.000000	-0.000072	0.000073	0.000119
51225	NaN	4.316706	-0.732534	8.892590	-0.136610	-0.175031	0.096875	1.000000	-0.000061	0.000077	0.000114
51226	NaN	4.324051	-0.714414	8.903727	-0.116635	-0.175627	0.108991	1.000000	-0.000054	0.000081	0.000116
51227	NaN	4.309792	-0.692320	8.925680	-0.094210	-0.151771	0.121570	1.000000	-0.000058	0.000084	0.000103
51228	NaN	4.268576	-0.730265	8.916113	-0.135482	-0.122017	0.097805	1.000000	-0.000019	0.000103	0.000107
51229	NaN	4.252525	-0.851292	8.932388	-0.256765	-0.110558	0.112939	1.000000	0.000026	0.000096	0.000085
51230	NaN	4.191724	-0.961267	8.910472	-0.373419	-0.074077	0.073979	1.000000	0.000047	0.000090	0.000070
51231	NaN	4.155570	-0.931969	8.943602	-0.348896	-0.025926	0.086956	1.000000	0.000152	0.000117	0.000038
51232	NaN	4.150027	-0.960018	8.893819	-0.382162	-0.045419	0.041057	1.000000	0.000197	0.000110	0.000016
51233	NaN	4.181971	-0.908700	8.946019	-0.331662	-0.049370	0.098591	1.000000	0.000276	0.000111	-0.000000
51234	NaN	4.154837	-0.819552	8.921534	-0.252151	-0.029665	0.059680	1.000000	0.000302	0.000105	-0.000023
51235	NaN	4.203115	-0.723907	8.934976	-0.158521	-0.061304	0.086561	1.000000	0.000315	0.000102	-0.000044
51236	NaN	4.143851	-0.683568	8.919258	-0.131194	-0.012611	0.045028	1.000000	0.000322	0.000106	-0.000042
51237	NaN	4.069821	-0.577398	9.016091	-0.036814	0.102289	0.095638	1.000000	0.000284	0.000099	-0.000040
51238	NaN	3.981664	-0.556145	9.060120	-0.029456	0.200958	0.097281	1.000000	0.000289	0.000109	-0.000022
51239	NaN	3.864746	-0.518400	9.095483	-0.007271	0.323193	0.078132	1.000000	0.000221	0.000099	-0.000016
51240	NaN	3.828788	-0.486439	9.128289	0.017015	0.371168	0.091041	1.000000	0.000192	0.000088	-0.000008
51241	NaN	3.783860	-0.475499	9.150576	0.020907	0.421232	0.091800	1.000000	0.000141	0.000104	0.000017
51242	NaN	3.805163	-0.479720	9.200498	0.016705	0.421988	0.146239	1.000000	0.000094	0.000096	0.000053
51243	NaN	3.844961	-0.484605	9.120181	0.012591	0.350942	0.090491	1.000000	0.000059	0.000094	0.000064
51244	NaN	3.881101	-0.481549	9.139881	0.018354	0.326674	0.123368	1.000000	-0.000001	0.000060	0.000075
51245	NaN	3.966044	-0.498351	9.097723	0.009296	0.230808	0.121751	1.000000	-0.000023	0.000086	0.000092
51246	NaN	4.031290	-0.589490	9.043518	-0.075745	0.141855	0.104881	1.000000	-0.000059	0.000071	0.000097
51247	NaN	4.110755	-0.596478	9.041725	-0.073970	0.068945	0.137019	1.000000	-0.000073	0.000061	0.000114
51248	NaN	4.161920	-0.662077	8.948805	-0.134791	-0.021460	0.077833	1.000000	-0.000076	0.000077	0.000106
51249	NaN	4.264732	-0.639968	8.927558	-0.101839	-0.121484	0.100620	1.000000	-0.000073	0.000061	0.000114
51250	NaN	4.287004	-0.723958	8.894524	-0.182650	-0.161732	0.084562	1.000000	-0.000081	0.000065	0.000107
51251	NaN	4.294520	-0.705866	8.905513	-0.162194	-0.162447	0.096733	1.000000	-0.000052	0.000076	0.000100
51252	NaN	4.375798	-0.679281	8.895015	-0.127751	-0.238142	0.119950	1.000000	-0.000045	0.000059	0.000100
51253	NaN	4.342524	-0.694898	8.835941	-0.146227	-0.234119	0.053318	1.000000	-0.000050	0.000070	0.000083
51254	NaN	4.349846	-0.711698	8.915472	-0.160525	-0.208147	0.129356	1.000000	-0.000013	0.000053	0.000121
51255	NaN	4.293068	-0.644986	8.889935	-0.099048	-0.162493	0.078782	1.000000	-0.000012	0.000079	0.000061
51256	NaN	4.232075	-0.680199	8.950610	-0.138877	-0.084474	0.110020	1.000000	-0.000007	0.000069	0.000078
51257	NaN	4.263127	-0.631585	8.942229	-0.087272	-0.112325	0.112854	1.000000	-0.000011	0.000069	0.000085
51258	NaN	4.263684	-0.599127	8.933995	-0.055169	-0.113832	0.103876	1.000000	-0.000003	0.000066	0.000091
51259	NaN	4.292760	-0.583946	8.934487	-0.036836	-0.138886	0.115716	1.000000	-0.000018	0.000086	0.000084
51260	NaN	4.275399	-0.592122	8.905266	-0.046846	-0.136198	0.082396	1.000000	-0.000036	0.000058	0.000086
51261	NaN	4.304595	-0.577700	8.905669	-0.028846	-0.161122	0.094251	1.000000	-0.000050	0.000079	0.000129
51262	NaN	4.227353	-0.621010	8.936489	-0.077469	-0.081741	0.092075	1.000000	-0.000058	0.000084	0.000103
51263	NaN	4.225942	-0.623213	8.937002	-0.077948	-0.080338	0.092082	1.000000	-0.000084	0.000058	0.000118
51264	NaN	4.179400	-0.650915	8.967533	-0.107735	-0.027359	0.101715	1.000000	-0.000078	0.000083	0.000122
51265	NaN	4.154180	-0.682563	8.987545	-0.139126	0.001415	0.111007	1.000000	-0.000071	0.000087	0.000124
51266	NaN	4.137983	-0.693942	9.018034	-0.150103	0.027987	0.132467	1.000000	-0.000068	0.000073	0.000112
51267	NaN	4.142102	-0.707067	8.978122	-0.161870	0.006418	0.098790	1.000000	-0.000065	0.000078	0.000121
51268	NaN	4.112080	-0.691823	8.969936	-0.148504	0.031273	0.077942	1.000000	-0.000053	0.000061	0.000114
51269	NaN	4.107060	-0.649401	9.002096	-0.104782	0.052721	0.102636	1.000000	-0.000059	0.000072	0.000097
51270	NaN	4.125301	-0.688705	9.000733	-0.141362	0.032842	0.111251	1.000000	-0.000051	0.000066	0.000124
51271	NaN	4.154486	-0.674397	9.001174	-0.123245	0.007829	0.123129	1.000000	-0.000039	0.000071	0.000098
51272	NaN	4.146119	-0.662808	8.982398	-0.112155	0.008354	0.101971	1.000000	-0.000050	0.000068	0.000103
51273	NaN	4.123201	-0.660302	8.993490	-0.110305	0.034077	0.102267	1.000000	-0.000033	0.000063	0.000095
51274	NaN	4.104017	-0.702012	8.972837	-0.153448	0.039797	0.077836	1.000000	-0.000045	0.000060	0.000100
51275	NaN	4.083022	-0.666113	8.975221	-0.118646	0.062438	0.069184	1.000000	-0.000030	0.000080	0.000110
51276	NaN	4.073960	-0.689918	9.024919	-0.141748	0.089969	0.111733	1.000000	-0.000032	0.000055	0.000099
51277	NaN	4.094294	-0.695287	9.014804	-0.144986	0.067083	0.111417	1.000000	-0.000020	0.000071	0.000099
51278	NaN	4.125593	-0.647226	9.006556	-0.094161	0.038936	0.114401	1.000000	-0.000033	0.000063	0.000095
51279	NaN	4.095630	-0.631217	8.998400	-0.080347	0.063665	0.093538	1.000000	-0.000026	0.000080	0.000103
51280	NaN	4.122704	-0.650002	9.007679	-0.095955	0.041703	0.114373	1.000000	-0.000035	0.000069	0.000111
51281	NaN	4.116461	-0.605128	8.980169	-0.051624	0.039068	0.084316	1.000000	-0.000055	0.000069	0.000110
51282	NaN	4.141557	-0.657929	8.998086	-0.100460	0.020233	0.114065	1.000000	-0.000070	0.000067	0.000122
51283	NaN	4.102847	-0.662894	8.979168	-0.107748	0.047099	0.080968	1.000000	-0.000070	0.000046	0.000121
51284	NaN	4.130324	-0.682463	8.988201	-0.123384	0.025163	0.101809	1.000000	-0.000067	0.000053	0.000110
51285	NaN	4.083683	-0.709661	9.018497	-0.152686	0.078280	0.111219	1.000000	-0.000071	0.000076	0.000098
51286	NaN	4.087892	-0.722341	8.978583	-0.164946	0.056624	0.077569	1.000000	-0.000028	0.000073	0.000114
51287	NaN	4.050274	-0.728889	9.019472	-0.172872	0.107564	0.099195	1.000000	-0.000043	0.000052	0.000104
51288	NaN	4.054788	-0.741366	8.979430	-0.185131	0.085906	0.065543	1.000000	-0.000038	0.000064	0.000102
51289	NaN	4.143343	-0.728390	8.988651	-0.162810	0.010991	0.110370	1.000000	-0.000032	0.000055	0.000099
51290	NaN	4.161129	-0.653978	8.941872	-0.087664	-0.019270	0.071224	1.000000	-0.000027	0.000065	0.000117
51291	NaN	4.173652	-0.681898	8.980925	-0.112528	-0.015984	0.113463	1.000000	-0.000031	0.000057	0.000079
51292	NaN	4.199650	-0.698151	8.930448	-0.127254	-0.061941	0.079600	1.000000	-0.000021	0.000079	0.000095
51293	NaN	4.173071	-0.651027	8.973329	-0.081212	-0.016458	0.104576	1.000000	-0.000033	0.000063	0.000095
51294	NaN	4.182243	-0.709988	8.961324	-0.138941	-0.033865	0.100946	1.000000	-0.000029	0.000060	0.000108
51295	NaN	4.190085	-0.691257	8.972388	-0.118483	-0.034725	0.113196	1.000000	-0.000017	0.000056	0.000107
51296	NaN	4.196829	-0.670062	8.923712	-0.097591	-0.059664	0.070729	1.000000	-0.000025	0.000060	0.000101
51297	NaN	4.228702	-0.735431	8.960915	-0.158522	-0.077254	0.121581	1.000000	-0.000018	0.000064	0.000103
51298	NaN	4.210136	-0.665759	8.954649	-0.090722	-0.058133	0.104097	1.000000	-0.000020	0.000071	0.000099
51299	NaN	4.228030	-0.704412	8.953412	-0.127239	-0.077729	0.112724	1.000000	-0.000014	0.000083	0.000097
51300	NaN	4.198257	-0.688064	8.945189	-0.113624	-0.053084	0.091831	1.000000	-0.000015	0.000048	0.000111
51301	NaN	4.151515	-0.713990	8.975450	-0.142773	0.000235	0.101100	1.000000	0.000003	0.000078	0.000089
51302	NaN	4.148968	-0.712153	8.916346	-0.142873	-0.022511	0.046390	1.000000	0.000016	0.000073	0.000088
51303	NaN	4.159901	-0.662000	8.978640	-0.090494	-0.002604	0.104509	1.000000	-0.000020	0.000071	0.000099
51304	NaN	4.134599	-0.692221	8.998415	-0.122274	0.026441	0.113536	1.000000	-0.000004	0.000072	0.000107
51305	NaN	4.128774	-0.646567	8.970960	-0.077619	0.023366	0.083594	1.000000	-0.000012	0.000055	0.000100
51306	NaN	4.119580	-0.670167	9.020525	-0.100631	0.051243	0.125983	1.000000	-0.000025	0.000060	0.000101
51307	NaN	4.117359	-0.668962	8.961237	-0.100577	0.028440	0.071290	1.000000	-0.000021	0.000059	0.000094
51308	NaN	4.146670	-0.654445	8.961898	-0.083196	0.003283	0.083365	1.000000	-0.000030	0.000081	0.000109
51309	NaN	4.130505	-0.665112	8.992203	-0.093500	0.030039	0.104647	1.000000	-0.000039	0.000050	0.000117
51310	NaN	4.151020	-0.671261	8.982062	-0.097111	0.007171	0.104445	1.000000	-0.000061	0.000056	0.000132
51311	NaN	4.162295	-0.697297	8.961365	-0.121693	-0.013389	0.091958	1.000000	-0.000031	0.000068	0.000104
51312	NaN	4.179157	-0.658875	8.983137	-0.080830	-0.016565	0.116533	1.000000	-0.000049	0.000061	0.000107
51313	NaN	4.168889	-0.680720	8.972903	-0.102410	-0.012932	0.104235	1.000000	-0.000052	0.000054	0.000118
51314	NaN	4.130232	-0.684975	8.953868	-0.109633	0.013924	0.071014	1.000000	-0.000049	0.000061	0.000107
51315	NaN	4.142294	-0.713506	8.992980	-0.134903	0.017560	0.113181	1.000000	-0.000053	0.000082	0.000115
51316	NaN	4.160285	-0.752897	8.991571	-0.171762	-0.001826	0.121781	1.000000	-0.000038	0.000042	0.000121
51317	NaN	4.157046	-0.674397	8.955443	-0.093669	-0.008602	0.083117	1.000000	-0.000032	0.000076	0.000100
51318	NaN	4.198986	-0.684201	8.934976	-0.099936	-0.055741	0.082782	1.000000	-0.000017	0.000056	0.000107
51319	NaN	4.213653	-0.679009	8.965373	-0.091991	-0.055500	0.116174	1.000000	-0.000041	0.000057	0.000113
51320	NaN	4.218260	-0.691638	8.925353	-0.104379	-0.077208	0.082622	1.000000	-0.000045	0.000058	0.000120
51321	NaN	4.192973	-0.722458	8.944923	-0.135637	-0.048046	0.091549	1.000000	-0.000042	0.000065	0.000109
51322	NaN	4.166695	-0.675562	8.987685	-0.089551	-0.002777	0.116471	1.000000	-0.000036	0.000057	0.000106
51323	NaN	4.140506	-0.703891	8.947487	-0.119944	0.002109	0.070753	1.000000	-0.000047	0.000064	0.000136
51324	NaN	4.139310	-0.705449	8.947918	-0.121008	0.003523	0.070739	1.000000	-0.000019	0.000051	0.000098
51325	NaN	4.165497	-0.646944	8.980395	-0.058931	-0.002221	0.107692	1.000000	-0.000042	0.000065	0.000109
51326	NaN	4.223378	-0.650739	8.989852	-0.056642	-0.050489	0.140808	1.000000	-0.000048	0.000051	0.000131
51327	NaN	4.219042	-0.683640	8.939046	-0.090020	-0.069796	0.094948	1.000000	-0.000062	0.000043	0.000127
51328	NaN	4.189637	-0.668185	8.930569	-0.076156	-0.045353	0.074008	1.000000	-0.000069	0.000060	0.000126
51329	NaN	4.134459	-0.717810	9.009517	-0.126806	0.034935	0.125275	1.000000	-0.000082	0.000052	0.000122
51330	NaN	4.117491	-0.726777	8.979869	-0.136533	0.037492	0.091853	1.000000	-0.000079	0.000058	0.000110
51331	NaN	4.054594	-0.760303	8.979825	-0.173857	0.092190	0.067410	1.000000	-0.000063	0.000071	0.000124
51332	NaN	4.081637	-0.780035	8.989042	-0.189887	0.070618	0.088325	1.000000	-0.000050	0.000047	0.000122
51333	NaN	4.089591	-0.761843	9.000143	-0.169555	0.069575	0.100644	1.000000	-0.000046	0.000068	0.000096
51334	NaN	4.088313	-0.763570	9.000577	-0.170608	0.071005	0.100616	1.000000	-0.000055	0.000057	0.000105
51335	NaN	4.067962	-0.727338	9.002898	-0.135547	0.092952	0.091983	1.000000	-0.000013	0.000063	0.000096
51336	NaN	4.073296	-0.741827	9.022686	-0.148875	0.095673	0.113017	1.000000	-0.000022	0.000067	0.000090
51337	NaN	4.065357	-0.729480	9.003902	-0.137339	0.095717	0.091932	1.000000	-0.000013	0.000063	0.000096
51338	NaN	4.042446	-0.726170	9.014842	-0.135622	0.121398	0.092005	1.000000	-0.000013	0.000063	0.000096
51339	NaN	4.041079	-0.727062	9.015383	-0.136708	0.122802	0.091973	1.000000	-0.000004	0.000074	0.000087
51340	NaN	3.974956	-0.714720	9.047198	-0.129432	0.196993	0.092227	1.000000	-0.000001	0.000048	0.000069
51341	NaN	3.986306	-0.739604	9.026477	-0.154253	0.176607	0.079731	1.000000	0.000006	0.000063	0.000097
51342	NaN	4.028176	-0.748956	9.006170	-0.160844	0.129521	0.079512	1.000000	0.000003	0.000078	0.000089
51343	NaN	4.081917	-0.705043	8.987982	-0.113053	0.076141	0.082987	1.000000	0.000005	0.000050	0.000092
51344	NaN	4.139895	-0.707939	8.997572	-0.111070	0.027947	0.116215	1.000000	0.000007	0.000055	0.000101
