// Start Time: Unknown
// Update Rate: 100.0Hz
// Filter Profile: human (46.1)
// Firmware Version: 4.3.5
PacketCounter	SampleTimeFine	Acc_X	Acc_Y	Acc_Z	FreeAcc_X	FreeAcc_Y	FreeAcc_Z	OriInc_q0	OriInc_q1	OriInc_q2	OriInc_q3
50181	NaN	9.826515	0.286138	-1.175219	0.000000	0.000000	0.087990	1.000000	-0.000101	-0.000021	0.000040
50182	NaN	9.805519	0.246662	-1.207199	0.000000	0.000000	0.069943	1.000000	-0.000111	-0.000017	0.000012
50183	NaN	9.792458	0.290927	-1.178857	0.026523	0.003659	0.054726	1.000000	-0.000084	-0.000030	0.000041
50184	NaN	9.828235	0.322452	-1.129765	0.068596	0.049178	0.085162	1.000000	-0.000062	-0.000030	0.000020
50185	NaN	9.801520	0.359953	-1.159413	0.099058	0.009523	0.063227	1.000000	-0.000082	-0.000034	0.000022
50186	NaN	9.801474	0.359922	-1.159810	0.099058	0.009523	0.063227	1.000000	-0.000087	-0.000013	0.000001
50187	NaN	9.831133	0.345399	-1.124390	0.092741	0.051128	0.087996	1.000000	-0.000094	-0.000044	0.000019
50188	NaN	9.794011	0.327450	-1.134821	0.073128	0.040993	0.051930	1.000000	-0.000067	-0.000028	0.000006
50189	NaN	9.829131	0.308498	-1.172279	0.045993	0.013746	0.090793	1.000000	-0.000093	-0.000027	-0.000029
50190	NaN	9.812980	0.330057	-1.151029	0.071588	0.028324	0.072779	1.000000	-0.000071	-0.000047	0.000021
50191	NaN	9.798022	0.337353	-1.169765	0.074538	0.007451	0.060397	1.000000	-0.000075	-0.000038	-0.000006
50192	NaN	9.797939	0.337538	-1.170409	0.074538	0.007451	0.060397	1.000000	-0.000073	-0.000033	0.000004
50193	NaN	9.831877	0.332117	-1.167961	0.069687	0.015554	0.093631	1.000000	-0.000073	-0.000017	0.000021
50194	NaN	9.813910	0.315982	-1.193143	0.048652	-0.007205	0.078412	1.000000	-0.000065	-0.000023	0.000016
50195	NaN	9.816925	0.339062	-1.186715	0.072431	-0.005335	0.081250	1.000000	-0.000071	-0.000028	0.000015
50196	NaN	9.779807	0.321026	-1.197044	0.052822	-0.015469	0.045181	1.000000	-0.000049	-0.000032	0.000017
50197	NaN	9.798883	0.322886	-1.212484	0.050886	-0.028154	0.066032	1.000000	-0.000058	-0.000011	0.000005
50198	NaN	9.798833	0.322743	-1.212919	0.050886	-0.028154	0.066032	1.000000	-0.000059	-0.000037	0.000024
50199	NaN	9.761719	0.304759	-1.223180	0.030668	-0.038281	0.029964	1.000000	-0.000064	-0.000016	0.000004
50200	NaN	9.787155	0.281069	-1.154759	0.022687	0.036759	0.046268	1.000000	-0.000069	-0.000033	-0.000004
50201	NaN	9.785175	0.244069	-1.202204	-0.024601	-0.000570	0.049052	1.000000	-0.000093	-0.000037	0.000006
50202	NaN	9.776595	0.225541	-1.137020	-0.028016	0.066289	0.032124	1.000000	-0.000100	-0.000049	0.000017
50203	NaN	9.777931	0.138925	-1.107579	-0.105936	0.114584	0.027517	1.000000	-0.000144	-0.000029	0.000052
50204	NaN	9.727406	0.048410	-1.303124	-0.236416	-0.059843	-0.001295	1.000000	-0.000104	-0.000105	0.000086
50205	NaN	9.785694	0.038772	-1.389711	-0.263210	-0.133260	0.066866	1.000000	-0.000047	-0.000047	0.000097
50206	NaN	9.746800	0.170142	-1.303739	-0.113902	-0.083662	0.021377	1.000000	-0.000057	-0.000037	0.000121
50207	NaN	9.767806	0.207098	-1.272712	-0.068170	-0.058785	0.039450	1.000000	-0.000091	-0.000043	0.000116
50208	NaN	9.772831	0.265470	-1.219619	0.002631	-0.019495	0.039509	1.000000	-0.000117	-0.000033	0.000109
50209	NaN	9.814961	0.342017	-1.156778	0.093650	0.030243	0.075633	1.000000	-0.000142	-0.000051	0.000081
50210	NaN	9.827336	0.433712	-1.129896	0.190329	0.038059	0.086991	1.000000	-0.000153	-0.000053	0.000065
50211	NaN	9.839713	0.525554	-1.103146	0.287060	0.046047	0.098345	1.000000	-0.000162	-0.000070	0.000066
50212	NaN	9.849154	0.522360	-1.013529	0.304676	0.135665	0.096637	1.000000	-0.000208	-0.000070	0.000010
50213	NaN	9.887246	0.526513	-1.044630	0.300941	0.110262	0.138362	1.000000	-0.000160	-0.000046	0.000006
50214	NaN	9.824692	0.460612	-1.054253	0.234431	0.108843	0.075759	1.000000	-0.000100	-0.000065	0.000001
50215	NaN	9.856544	0.418204	-1.099305	0.181523	0.079170	0.111808	1.000000	-0.000022	-0.000035	0.000010
50216	NaN	9.846750	0.485577	-1.063929	0.255463	0.097656	0.099497	1.000000	0.000040	-0.000031	0.000009
50217	NaN	9.854170	0.453130	-1.217258	0.187419	-0.042663	0.124856	1.000000	0.000071	-0.000017	0.000011
50218	NaN	9.809741	0.402300	-1.201161	0.141959	-0.021317	0.077462	1.000000	0.000075	0.000011	0.000025
50219	NaN	9.782417	0.316075	-1.246712	0.045805	-0.050450	0.053682	1.000000	0.000059	0.000017	0.000047
50220	NaN	9.749582	0.306698	-1.289206	0.027927	-0.094005	0.026055	1.000000	0.000057	0.000012	0.000036
50221	NaN	9.773139	0.244526	-1.267269	-0.029284	-0.056593	0.045099	1.000000	0.000079	0.000002	0.000051
50222	NaN	9.762466	0.260144	-1.318348	-0.024436	-0.110823	0.041174	1.000000	0.000068	-0.000020	0.000042
50223	NaN	9.768665	0.305724	-1.305080	0.021501	-0.106933	0.046908	1.000000	0.000075	-0.000043	0.000021
50224	NaN	9.749457	0.303431	-1.290925	0.022958	-0.094300	0.026065	1.000000	0.000049	-0.000049	-0.000002
50225	NaN	9.770474	0.342119	-1.260272	0.065807	-0.069295	0.044207	1.000000	0.000060	-0.000065	0.000020
50226	NaN	9.785216	0.334329	-1.243652	0.062653	-0.048488	0.056589	1.000000	0.000042	-0.000061	0.000009
50227	NaN	9.826379	0.361139	-1.268168	0.081517	-0.071305	0.101175	1.000000	0.000036	-0.000066	0.000008
50228	NaN	9.791209	0.380317	-1.232098	0.108610	-0.044094	0.062369	1.000000	0.000032	-0.000040	-0.000002
50229	NaN	9.810201	0.381849	-1.248072	0.104784	-0.056032	0.083242	1.000000	0.000005	-0.000048	0.000039
50230	NaN	9.796511	0.302263	-1.236723	0.030601	-0.028452	0.066115	1.000000	-0.000001	-0.000034	0.000031
50231	NaN	9.762455	0.307128	-1.240226	0.033019	-0.035941	0.032902	1.000000	0.000006	-0.000040	0.000027
50232	NaN	9.802629	0.347534	-1.224486	0.076705	-0.023846	0.071908	1.000000	0.000017	-0.000054	0.000026
50233	NaN	9.799369	0.323801	-1.232481	0.050172	-0.025087	0.069030	1.000000	0.000050	-0.000051	0.000021
50234	NaN	9.798239	0.337053	-1.193522	0.072644	0.010301	0.063456	1.000000	0.000071	-0.000043	0.000029
50235	NaN	9.782203	0.357611	-1.172573	0.096114	0.025614	0.045529	1.000000	0.000089	-0.000063	0.000024
50236	NaN	9.801184	0.359014	-1.188653	0.094626	0.013002	0.066375	1.000000	0.000115	-0.000028	0.000005
50237	NaN	9.820143	0.360558	-1.204840	0.090679	0.000949	0.087244	1.000000	0.000127	-0.000072	0.000004
50238	NaN	9.820000	0.360213	-1.206115	0.090670	0.000957	0.087244	1.000000	0.000133	-0.000048	-0.000001
50239	NaN	9.835794	0.338421	-1.229292	0.062723	-0.013004	0.105197	1.000000	0.000109	-0.000060	0.000022
50240	NaN	9.801702	0.343084	-1.233130	0.067386	-0.021184	0.071982	1.000000	0.000113	-0.000043	0.000030
50241	NaN	9.786745	0.349342	-1.251665	0.068350	-0.041455	0.059633	1.000000	0.000079	-0.000017	0.000057
50242	NaN	9.824872	0.351787	-1.282396	0.065345	-0.066675	0.101327	1.000000	0.000096	-0.000026	0.000058
50243	NaN	9.783581	0.323481	-1.259285	0.041713	-0.042679	0.056726	1.000000	0.000085	0.000007	0.000052
50244	NaN	9.771862	0.352543	-1.270478	0.069044	-0.061521	0.047289	1.000000	0.000094	-0.000021	0.000077
50245	NaN	9.771864	0.350849	-1.270931	0.066682	-0.060866	0.047310	1.000000	0.000038	-0.000020	0.000079
50246	NaN	9.764513	0.316844	-1.245356	0.040840	-0.029379	0.035891	1.000000	0.000053	-0.000033	0.000070
50247	NaN	9.761285	0.292446	-1.252919	0.014554	-0.030511	0.032965	1.000000	0.000037	-0.000034	0.000040
50248	NaN	9.799354	0.295191	-1.283924	0.011513	-0.055718	0.074663	1.000000	0.000069	-0.000039	0.000048
50249	NaN	9.770692	0.360010	-1.233928	0.085286	-0.023948	0.041792	1.000000	0.000057	-0.000049	0.000045
50250	NaN	9.782321	0.328604	-1.223943	0.057932	-0.005071	0.051208	1.000000	0.000045	-0.000052	0.000029
50251	NaN	9.804707	0.280739	-1.163083	0.024173	0.068837	0.064485	1.000000	0.000041	-0.000052	0.000038
50252	NaN	9.746116	0.223158	-1.205495	-0.040405	0.033980	0.010092	1.000000	0.000023	-0.000067	0.000034
50253	NaN	9.818072	0.220444	-1.234368	-0.050111	0.017397	0.084988	1.000000	0.000044	-0.000066	0.000055
50254	NaN	9.784944	0.210864	-1.277892	-0.067887	-0.026172	0.057333	1.000000	0.000095	-0.000023	0.000035
50255	NaN	9.783920	0.223873	-1.238844	-0.046946	0.009770	0.051777	1.000000	0.000040	-0.000060	0.000051
50256	NaN	9.806070	0.247924	-1.248183	-0.024324	-0.000868	0.075581	1.000000	0.000034	-0.000046	0.000043
50257	NaN	9.818645	0.202179	-1.277802	-0.075435	-0.016850	0.090518	1.000000	0.000030	-0.000030	0.000068
50258	NaN	9.822052	0.151738	-1.201266	-0.106112	0.068877	0.082906	1.000000	0.000019	-0.000024	0.000081
50259	NaN	9.785748	0.118388	-1.251190	-0.149664	0.023800	0.052270	1.000000	0.000065	-0.000023	0.000073
50260	NaN	9.785713	0.116553	-1.251633	-0.149676	0.023819	0.052270	1.000000	0.000072	-0.000021	0.000097
50261	NaN	9.756755	0.115041	-1.327664	-0.166467	-0.052835	0.033109	1.000000	0.000101	-0.000019	0.000101
50262	NaN	9.816230	0.155451	-1.326682	-0.124444	-0.053300	0.093084	1.000000	0.000086	-0.000006	0.000110
50263	NaN	9.749706	0.215687	-1.245870	-0.046530	0.003312	0.018554	1.000000	0.000024	-0.000026	0.000095
50264	NaN	9.794410	0.191758	-1.192972	-0.056143	0.065785	0.055592	1.000000	0.000009	-0.000048	0.000095
50265	NaN	9.770089	0.265199	-1.176111	0.020537	0.063757	0.031282	1.000000	-0.000029	-0.000048	0.000086
50266	NaN	9.825368	0.297398	-1.143026	0.060885	0.096716	0.082754	1.000000	-0.000037	-0.000074	0.000058
50267	NaN	9.790077	0.460134	-1.247639	0.197285	-0.043225	0.065224	1.000000	-0.000029	-0.000057	0.000057
50268	NaN	9.906453	0.586671	-1.126394	0.348817	0.061950	0.168557	1.000000	-0.000013	-0.000027	0.000045
50269	NaN	9.853824	0.438197	-1.210328	0.185655	0.006431	0.123119	1.000000	-0.000023	-0.000007	0.000033
50270	NaN	9.812359	0.482547	-1.257100	0.219382	-0.054056	0.089054	1.000000	0.000039	0.000006	0.000061
50271	NaN	9.834740	0.506537	-1.265245	0.240475	-0.064610	0.112912	1.000000	0.000067	0.000018	0.000029
50272	NaN	9.802593	0.483136	-1.347366	0.200189	-0.143556	0.090795	1.000000	0.000036	0.000020	0.000044
50273	NaN	9.781258	0.443143	-1.378450	0.154248	-0.168175	0.072525	1.000000	0.000020	0.000029	0.000043
50274	NaN	9.749235	0.347641	-1.390285	0.059153	-0.163371	0.039781	1.000000	0.000005	0.000007	0.000043
50275	NaN	9.751035	0.318617	-1.469802	0.012721	-0.233221	0.050880	1.000000	0.000017	0.000017	0.000046
50276	NaN	9.766838	0.296566	-1.491799	-0.013018	-0.247749	0.068759	1.000000	0.000016	-0.000016	0.000013
50277	NaN	9.757585	0.363950	-1.456296	0.059566	-0.228298	0.056865	1.000000	0.000016	0.000001	0.000030
50278	NaN	9.754306	0.340210	-1.463317	0.035375	-0.230223	0.053886	1.000000	-0.000008	-0.000020	0.000024
50279	NaN	9.773364	0.341400	-1.478568	0.032559	-0.241728	0.074772	1.000000	-0.000018	0.000010	0.000041
50280	NaN	9.787494	0.347221	-1.420498	0.051819	-0.185509	0.081569	1.000000	0.000009	0.000023	0.000051
50281	NaN	9.754524	0.337713	-1.462443	0.032793	-0.227718	0.053953	1.000000	0.000005	0.000042	0.000053
50282	NaN	9.801806	0.351676	-1.361446	0.069793	-0.127895	0.088393	1.000000	0.000007	0.000028	0.000069
50283	NaN	9.790325	0.380951	-1.371786	0.096787	-0.145281	0.079072	1.000000	0.000020	0.000045	0.000060
50284	NaN	9.768129	0.354834	-1.362752	0.074166	-0.134610	0.055227	1.000000	0.000015	0.000028	0.000052
50285	NaN	9.817111	0.340852	-1.341561	0.065334	-0.104509	0.100760	1.000000	0.000026	0.000034	0.000045
50286	NaN	9.805635	0.298413	-1.281653	0.037863	-0.039604	0.080702	1.000000	0.000012	0.000035	0.000048
50287	NaN	9.771777	0.231206	-1.213519	-0.013815	0.037474	0.036786	1.000000	-0.000011	0.000022	0.000030
50288	NaN	9.715513	0.211476	-1.207653	-0.031662	0.039886	-0.020254	1.000000	0.000002	0.000005	0.000010
50289	NaN	9.801638	0.215713	-1.177376	-0.021636	0.080651	0.061414	1.000000	0.000013	0.000007	0.000026
50290	NaN	9.839783	0.218647	-1.207582	-0.024826	0.055525	0.103143	1.000000	0.000036	0.000004	0.000028
50291	NaN	9.839841	0.217953	-1.207237	-0.026071	0.056239	0.103136	1.000000	0.000043	0.000033	0.000033
50292	NaN	9.812547	0.197159	-1.125317	-0.027830	0.135666	0.065172	1.000000	0.000036	0.000039	0.000038
50293	NaN	9.794473	0.180671	-1.149162	-0.049643	0.114106	0.049839	1.000000	0.000014	0.000050	0.000023
50294	NaN	9.836016	0.206637	-1.171744	-0.028698	0.090940	0.094572	1.000000	0.000051	0.000042	0.000045
50295	NaN	9.817969	0.189712	-1.195492	-0.050915	0.068053	0.079253	1.000000	0.000023	0.000057	0.000057
50296	NaN	9.803234	0.195944	-1.212337	-0.047760	0.047237	0.066940	1.000000	0.000030	0.000051	0.000053
50297	NaN	9.768536	0.214713	-1.174226	-0.020974	0.075369	0.028201	1.000000	0.000025	0.000053	0.000039
50298	NaN	9.757094	0.244553	-1.184291	0.006331	0.056512	0.018895	1.000000	-0.000004	0.000051	0.000035
50299	NaN	9.810237	0.239978	-1.195841	-0.000970	0.052703	0.072938	1.000000	-0.000012	0.000034	0.000036
50300	NaN	9.811222	0.225335	-1.235075	-0.023549	0.017366	0.078491	1.000000	0.000032	0.000030	0.000018
50301	NaN	9.809684	0.324887	-1.224830	0.075444	0.005344	0.078214	1.000000	0.000018	0.000059	0.000043
50302	NaN	9.772574	0.306535	-1.233471	0.056023	-0.004843	0.042030	1.000000	0.000007	0.000038	0.000034
50303	NaN	9.772702	0.305872	-1.232624	0.055531	-0.004192	0.042033	1.000000	0.000010	0.000050	0.000032
50304	NaN	9.807703	0.285383	-1.268729	0.028137	-0.031243	0.080764	1.000000	-0.000008	0.000051	0.000044
50305	NaN	9.803621	0.275515	-1.234827	0.025877	0.001846	0.072201	1.000000	0.000007	0.000038	0.000034
50306	NaN	9.823032	0.348418	-1.319419	0.079003	-0.094443	0.103918	1.000000	0.000021	0.000052	0.000047
50307	NaN	9.774394	0.360342	-1.339145	0.086254	-0.122923	0.058452	1.000000	0.000007	0.000047	0.000063
50308	NaN	9.808559	0.353547	-1.335055	0.081365	-0.114621	0.091627	1.000000	0.000025	0.000088	0.000049
50309	NaN	9.797257	0.383293	-1.344621	0.107124	-0.132199	0.082372	1.000000	0.000038	0.000070	0.000029
50310	NaN	9.775077	0.357501	-1.334918	0.084474	-0.121544	0.058484	1.000000	-0.000010	0.000074	0.000056
50311	NaN	9.752904	0.331789	-1.325100	0.061292	-0.110675	0.034601	1.000000	-0.000034	0.000080	0.000031
50312	NaN	9.726428	0.297260	-1.282510	0.037018	-0.066620	0.002138	1.000000	-0.000019	0.000048	0.000028
50313	NaN	9.799620	0.280494	-1.348998	0.006255	-0.118427	0.082613	1.000000	-0.000024	0.000031	0.000020
50314	NaN	9.780627	0.278349	-1.333205	0.007762	-0.105829	0.061740	1.000000	0.000011	0.000038	0.000025
50315	NaN	9.802246	0.316817	-1.300688	0.051572	-0.080365	0.080091	1.000000	0.000026	0.000060	0.000026
50316	NaN	9.753640	0.329110	-1.320342	0.059523	-0.109456	0.034626	1.000000	0.000021	0.000052	0.000047
50317	NaN	9.791056	0.345902	-1.309711	0.078617	-0.098706	0.070826	1.000000	0.000014	0.000050	0.000023
50318	NaN	9.764502	0.311119	-1.267514	0.054351	-0.054660	0.038350	1.000000	-0.000028	0.000040	0.000058
50319	NaN	9.802876	0.313750	-1.296680	0.051056	-0.080070	0.080097	1.000000	-0.000010	0.000065	0.000027
50320	NaN	9.779639	0.302480	-1.247502	0.050939	-0.034083	0.050645	1.000000	-0.000011	0.000041	0.000023
50321	NaN	9.790677	0.357728	-1.266088	0.099357	-0.062762	0.065293	1.000000	-0.000023	0.000039	0.000008
50322	NaN	9.801322	0.341318	-1.214263	0.094403	-0.008490	0.069006	1.000000	-0.000031	0.000048	-0.000010
50323	NaN	9.801387	0.341610	-1.213653	0.092140	-0.007749	0.069028	1.000000	-0.000035	0.000012	-0.000011
50324	NaN	9.800427	0.356069	-1.173620	0.114542	0.027635	0.063479	1.000000	-0.000014	0.000004	-0.000019
50325	NaN	9.812333	0.398203	-1.232559	0.140015	-0.036381	0.083711	1.000000	-0.000002	0.000024	-0.000052
50326	NaN	9.815645	0.422225	-1.225490	0.164028	-0.034398	0.086752	1.000000	-0.000016	-0.000001	-0.000029
50327	NaN	9.865366	0.395834	-1.244430	0.132200	-0.039263	0.137776	1.000000	-0.000019	0.000014	-0.000046
50328	NaN	9.800437	0.359319	-1.172549	0.111138	0.029879	0.063511	1.000000	-0.000062	0.000025	-0.000040
50329	NaN	9.769087	0.251595	-1.224195	-0.008618	0.000841	0.036015	1.000000	-0.000059	0.000018	-0.000036
50330	NaN	9.792532	0.263119	-1.271867	-0.008781	-0.045060	0.065493	1.000000	-0.000028	0.000025	-0.000023
50331	NaN	9.762559	0.206461	-1.236938	-0.059657	-0.002177	0.029905	1.000000	-0.000024	0.000025	-0.000031
50332	NaN	9.805123	0.219244	-1.299794	-0.061477	-0.060619	0.080266	1.000000	0.000008	0.000010	0.000012
50333	NaN	9.820995	0.197498	-1.321307	-0.087488	-0.073996	0.098098	1.000000	0.000056	0.000034	0.000007
50334	NaN	9.779986	0.242280	-1.367317	-0.053808	-0.134551	0.064325	1.000000	0.000057	0.000066	0.000040
50335	NaN	9.760068	0.253507	-1.311159	-0.029755	-0.085878	0.037900	1.000000	0.000038	0.000060	0.000064
50336	NaN	9.764577	0.261373	-1.342934	-0.028316	-0.119215	0.046508	1.000000	0.000026	0.000069	0.000055
50337	NaN	9.791086	0.222345	-1.312618	-0.059509	-0.078202	0.068007	1.000000	0.000004	0.000061	0.000046
50338	NaN	9.756306	0.241131	-1.274608	-0.032264	-0.051110	0.029295	1.000000	-0.000009	0.000043	0.000056
50339	NaN	9.740617	0.261807	-1.251898	-0.006772	-0.035765	0.011471	1.000000	-0.000035	0.000037	0.000034
50340	NaN	9.747873	0.221454	-1.207173	-0.035908	0.016616	0.012066	1.000000	-0.000015	0.000022	0.000038
50341	NaN	9.774707	0.254883	-1.248054	-0.011449	-0.026392	0.044628	1.000000	-0.000004	0.000016	0.000025
50342	NaN	9.822512	0.255270	-1.186831	0.002850	0.038205	0.084484	1.000000	-0.000006	0.000039	0.000037
50343	NaN	9.797335	0.278440	-1.255170	0.011065	-0.035707	0.068575	1.000000	0.000040	0.000021	0.000035
50344	NaN	9.823232	0.325426	-1.255864	0.057569	-0.044281	0.095577	1.000000	0.000041	0.000053	0.000068
50345	NaN	9.822393	0.338083	-1.214988	0.078780	-0.008428	0.090021	1.000000	0.000041	0.000053	0.000068
50346	NaN	9.834059	0.305941	-1.202663	0.051250	0.010578	0.099224	1.000000	0.000033	0.000072	0.000079
50347	NaN	9.809062	0.328285	-1.270161	0.058437	-0.062880	0.083343	1.000000	0.000043	0.000077	0.000072
50348	NaN	9.785792	0.316041	-1.220683	0.058340	-0.016866	0.053821	1.000000	0.000064	0.000069	0.000064
50349	NaN	9.790357	0.323683	-1.252465	0.059234	-0.049724	0.062460	1.000000	0.000067	0.000062	0.000068
50350	NaN	9.808666	0.338126	-1.226479	0.079988	-0.026828	0.077782	1.000000	0.000062	0.000064	0.000054
50351	NaN	9.791804	0.306943	-1.289782	0.036466	-0.083837	0.068042	1.000000	0.000061	0.000076	0.000060
50352	NaN	9.808881	0.269986	-1.350112	-0.012051	-0.133517	0.091447	1.000000	0.000068	0.000069	0.000055
50353	NaN	9.822827	0.275406	-1.290916	0.006180	-0.076577	0.098132	1.000000	0.000028	0.000074	0.000065
50354	NaN	9.762255	0.245903	-1.251074	-0.013172	-0.040844	0.032385	1.000000	0.000011	0.000082	0.000064
50355	NaN	9.770546	0.190796	-1.245272	-0.065615	-0.023695	0.038495	1.000000	-0.000011	0.000067	0.000068
50356	NaN	9.769681	0.203689	-1.204102	-0.043214	0.011728	0.032921	1.000000	-0.000021	0.000069	0.000063
50357	NaN	9.785689	0.180751	-1.224620	-0.067518	-0.001387	0.050755	1.000000	0.000013	0.000068	0.000080
50358	NaN	9.758683	0.231569	-1.212481	-0.014502	-0.005775	0.023744	1.000000	0.000029	0.000081	0.000052
50359	NaN	9.803915	0.279931	-1.227613	0.031845	-0.026295	0.071666	1.000000	0.000037	0.000053	0.000077
50360	NaN	9.811885	0.310623	-1.252681	0.057425	-0.057646	0.083380	1.000000	0.000040	0.000065	0.000074
50361	NaN	9.807678	0.300081	-1.218250	0.056021	-0.023112	0.074732	1.000000	0.000020	0.000080	0.000069
50362	NaN	9.808992	0.284533	-1.256548	0.033314	-0.058310	0.080324	1.000000	0.000001	0.000077	0.000071
50363	NaN	9.782231	0.249282	-1.213880	0.008321	-0.013143	0.047711	1.000000	0.000008	0.000070	0.000066
50364	NaN	9.782396	0.248037	-1.212803	0.008189	-0.013021	0.047711	1.000000	0.000014	0.000040	0.000058
50365	NaN	9.798360	0.225280	-1.233674	-0.017539	-0.025798	0.065550	1.000000	0.000010	0.000059	0.000060
50366	NaN	9.798495	0.224222	-1.232791	-0.017667	-0.025664	0.065550	1.000000	0.000039	0.000032	0.000042
50367	NaN	9.798608	0.223188	-1.232079	-0.017764	-0.025405	0.065551	1.000000	0.000047	0.000042	0.000053
50368	NaN	9.825782	0.255880	-1.272311	0.006152	-0.069241	0.098186	1.000000	0.000042	0.000061	0.000055
50369	NaN	9.810160	0.276168	-1.249273	0.030750	-0.053227	0.080361	1.000000	0.000044	0.000065	0.000065
50370	NaN	9.805893	0.265620	-1.214928	0.029067	-0.019701	0.071690	1.000000	0.000033	0.000072	0.000079
50371	NaN	9.780084	0.302089	-1.242665	0.057614	-0.058836	0.050311	1.000000	0.000049	0.000082	0.000073
50372	NaN	9.761116	0.298994	-1.226237	0.059134	-0.046193	0.029407	1.000000	-0.000002	0.000065	0.000073
50373	NaN	9.807611	0.247153	-1.250792	0.003508	-0.052416	0.077310	1.000000	0.000051	0.000043	0.000045
50374	NaN	9.769347	0.242941	-1.219967	0.006701	-0.027270	0.035495	1.000000	0.000038	0.000044	0.000048
50375	NaN	9.822555	0.237672	-1.231229	-0.000028	-0.030135	0.089540	1.000000	0.000048	0.000031	0.000047
50376	NaN	9.806851	0.258269	-1.208767	0.025641	-0.015570	0.071707	1.000000	0.000032	0.000039	0.000046
50377	NaN	9.848777	0.283607	-1.231092	0.045655	-0.038204	0.116607	1.000000	0.000030	0.000051	0.000052
50378	NaN	9.807151	0.255990	-1.206812	0.024712	-0.014972	0.071710	1.000000	0.000025	0.000062	0.000067
50379	NaN	9.807342	0.254593	-1.205560	0.023794	-0.013890	0.071714	1.000000	0.000031	0.000067	0.000069
50380	NaN	9.807534	0.253181	-1.204290	0.023635	-0.013723	0.071714	1.000000	0.000011	0.000064	0.000070
50381	NaN	9.788519	0.250114	-1.188037	0.023381	0.000456	0.050808	1.000000	0.000027	0.000067	0.000077
50382	NaN	9.796649	0.280908	-1.212965	0.048877	-0.030838	0.062594	1.000000	0.000035	0.000067	0.000060
50383	NaN	9.777651	0.277863	-1.196574	0.048497	-0.017602	0.041692	1.000000	0.000025	0.000078	0.000083
50384	NaN	9.789125	0.245760	-1.183944	0.020956	0.001568	0.050813	1.000000	0.000016	0.000064	0.000062
50385	NaN	9.774635	0.251977	-1.200794	0.022862	-0.018915	0.038607	1.000000	0.000010	0.000059	0.000060
50386	NaN	9.821082	0.199951	-1.225222	-0.032221	-0.026611	0.086457	1.000000	0.000022	0.000050	0.000069
50387	NaN	9.797600	0.274182	-1.206808	0.043712	-0.028292	0.062626	1.000000	0.000020	0.000064	0.000053
50388	NaN	9.794368	0.249910	-1.212370	0.019367	-0.030013	0.059529	1.000000	0.000033	0.000063	0.000050
50389	NaN	9.799088	0.257590	-1.244466	0.019948	-0.061312	0.068255	1.000000	0.000009	0.000033	0.000079
50390	NaN	9.799265	0.255973	-1.243405	0.019740	-0.061113	0.068257	1.000000	0.000039	0.000077	0.000080
50391	NaN	9.794878	0.245445	-1.209156	0.017300	-0.025801	0.059545	1.000000	0.000022	0.000050	0.000069
50392	NaN	9.809672	0.236672	-1.190154	0.013878	-0.004685	0.071741	1.000000	0.000007	0.000047	0.000063
50393	NaN	9.795170	0.242813	-1.207319	0.015707	-0.025980	0.059547	1.000000	0.000016	0.000045	0.000068
50394	NaN	9.798735	0.264728	-1.199682	0.039627	-0.023876	0.062655	1.000000	0.000001	0.000042	0.000061
50395	NaN	9.829295	0.234471	-1.202658	0.010543	-0.017215	0.092664	1.000000	0.000002	0.000030	0.000055
50396	NaN	9.810186	0.231883	-1.186859	0.012038	-0.004546	0.071744	1.000000	-0.000006	0.000056	0.000053
50397	NaN	9.768439	0.204484	-1.162586	-0.008860	0.019262	0.026793	1.000000	-0.000017	0.000062	0.000066
50398	NaN	9.805883	0.220498	-1.151745	0.010138	0.029806	0.063015	1.000000	0.000017	0.000033	0.000062
50399	NaN	9.821794	0.197477	-1.172821	-0.016378	0.015057	0.080829	1.000000	-0.000000	0.000035	0.000074
50400	NaN	9.810747	0.226747	-1.183204	0.010760	-0.003749	0.071746	1.000000	0.000019	0.000057	0.000065
50401	NaN	9.801981	0.293349	-1.146966	0.083355	0.015109	0.060166	1.000000	0.000015	0.000038	0.000080
50402	NaN	9.807931	0.286602	-1.218967	0.061987	-0.053332	0.074519	1.000000	0.000003	0.000047	0.000071
50403	NaN	9.815787	0.231182	-1.213701	0.010717	-0.035733	0.080482	1.000000	0.000005	0.000032	0.000087
50404	NaN	9.773955	0.203665	-1.189878	-0.010209	-0.012506	0.035522	1.000000	0.000009	0.000043	0.000044
50405	NaN	9.777537	0.225738	-1.182236	0.012522	-0.009388	0.038639	1.000000	0.000016	0.000045	0.000068
50406	NaN	9.771134	0.263997	-1.225938	0.041140	-0.061563	0.038313	1.000000	0.000037	0.000018	0.000066
50407	NaN	9.806270	0.242645	-1.262137	0.012522	-0.087715	0.077052	1.000000	0.000006	0.000031	0.000046
50408	NaN	9.814488	0.273653	-1.287764	0.037913	-0.118979	0.088918	1.000000	0.000027	0.000032	0.000067
50409	NaN	9.795363	0.270789	-1.272119	0.038490	-0.105679	0.068006	1.000000	-0.000003	0.000042	0.000070
50410	NaN	9.825912	0.240343	-1.274802	0.009159	-0.098901	0.097992	1.000000	-0.000010	0.000055	0.000062
50411	NaN	9.822634	0.216040	-1.280328	-0.015633	-0.099033	0.094885	1.000000	0.000003	0.000073	0.000052
50412	NaN	9.794723	0.281142	-1.228854	0.060011	-0.068243	0.062405	1.000000	-0.000031	0.000054	0.000104
50413	NaN	9.799565	0.288438	-1.260894	0.059867	-0.101787	0.071167	1.000000	0.000016	0.000045	0.000068
50414	NaN	9.830183	0.257539	-1.263011	0.030519	-0.094992	0.101145	1.000000	-0.000031	0.000108	0.000108
50415	NaN	9.811211	0.254143	-1.246170	0.031219	-0.081493	0.080228	1.000000	0.000005	0.000087	0.000091
50416	NaN	9.834252	0.276867	-1.252451	0.053355	-0.091832	0.104294	1.000000	0.000019	0.000102	0.000104
50417	NaN	9.805431	0.289796	-1.286573	0.059578	-0.133064	0.079960	1.000000	0.000002	0.000110	0.000103
50418	NaN	9.819135	0.294301	-1.226419	0.078779	-0.076673	0.086507	1.000000	0.000006	0.000120	0.000123
50419	NaN	9.824230	0.300952	-1.257011	0.079597	-0.109266	0.095282	1.000000	0.000007	0.000127	0.000110
50420	NaN	9.816389	0.266518	-1.228265	0.053734	-0.077561	0.083385	1.000000	0.000009	0.000132	0.000120
50421	NaN	9.814507	0.226672	-1.272350	0.005203	-0.114804	0.085878	1.000000	0.000012	0.000125	0.000124
50422	NaN	9.812142	0.286930	-1.307230	0.057890	-0.165098	0.088762	1.000000	0.000023	0.000146	0.000133
50423	NaN	9.839464	0.231620	-1.314353	0.003406	-0.159059	0.115601	1.000000	0.000006	0.000183	0.000155
50424	NaN	9.804923	0.248792	-1.274181	0.030782	-0.132071	0.076881	1.000000	0.000021	0.000186	0.000162
50425	NaN	9.803245	0.207973	-1.317076	-0.016272	-0.168110	0.079382	1.000000	0.000052	0.000193	0.000175
50426	NaN	9.798641	0.295680	-1.271087	0.081763	-0.147921	0.071031	1.000000	0.000001	0.000211	0.000185
50427	NaN	9.801872	0.229157	-1.229453	0.027604	-0.095678	0.068144	1.000000	-0.000009	0.000206	0.000192
50428	NaN	9.809869	0.171664	-1.220827	-0.024162	-0.078266	0.074006	1.000000	0.000019	0.000210	0.000174
50429	NaN	9.780146	0.197710	-1.213420	0.004537	-0.083941	0.044070	1.000000	0.000031	0.000192	0.000154
50430	NaN	9.803563	0.219195	-1.217727	0.026630	-0.094252	0.068161	1.000000	0.000045	0.000190	0.000151
50431	NaN	9.802758	0.230323	-1.174141	0.047118	-0.057871	0.062542	1.000000	0.000024	0.000199	0.000159
50432	NaN	9.781718	0.188421	-1.202168	0.001771	-0.082308	0.044084	1.000000	0.000039	0.000185	0.000150
50433	NaN	9.791727	0.169136	-1.147343	-0.003146	-0.027744	0.047442	1.000000	0.000025	0.000189	0.000130
50434	NaN	9.811570	0.167835	-1.158491	-0.005207	-0.039925	0.068383	1.000000	0.000014	0.000184	0.000137
50435	NaN	9.798569	0.124206	-1.095592	-0.032238	0.026061	0.047636	1.000000	0.000022	0.000196	0.000126
50436	NaN	9.795397	0.098545	-1.099080	-0.056659	0.024436	0.044477	1.000000	0.000021	0.000142	0.000123
50437	NaN	9.823668	0.129791	-1.137323	-0.032631	-0.018665	0.077378	1.000000	0.000041	0.000136	0.000093
50438	NaN	9.814019	0.110034	-1.068656	-0.035782	0.048297	0.059773	1.000000	0.000014	0.000140	0.000099
50439	NaN	9.842310	0.141290	-1.106962	-0.012784	0.006374	0.092675	1.000000	0.000023	0.000130	0.000117
50440	NaN	9.784462	0.135197	-1.059834	-0.007721	0.043877	0.029834	1.000000	0.000014	0.000159	0.000092
50441	NaN	9.814999	0.103863	-1.060238	-0.036747	0.051938	0.059751	1.000000	0.000001	0.000141	0.000102
50442	NaN	9.840470	0.063602	-1.027796	-0.067573	0.092225	0.080856	1.000000	-0.000008	0.000143	0.000096
50443	NaN	9.822827	0.046425	-1.049949	-0.089176	0.071612	0.065541	1.000000	0.000015	0.000149	0.000064
50444	NaN	9.859854	0.110205	-1.114266	-0.040149	-0.003498	0.110459	1.000000	0.000018	0.000133	0.000103
50445	NaN	9.876647	0.138063	-1.046786	0.002365	0.055716	0.120080	1.000000	0.000028	0.000138	0.000096
50446	NaN	9.825291	0.126773	-1.072256	-0.013863	0.024649	0.071712	1.000000	0.000019	0.000175	0.000100
50447	NaN	9.820573	0.115967	-1.036037	-0.015935	0.059694	0.062872	1.000000	-0.000005	0.000155	0.000094
50448	NaN	9.797878	0.089666	-1.025074	-0.038562	0.070527	0.038747	1.000000	-0.000005	0.000155	0.000094
50449	NaN	9.807412	0.071377	-0.970822	-0.044391	0.125337	0.042019	1.000000	0.000008	0.000154	0.000091
50450	NaN	9.789322	0.102772	-1.070560	-0.035479	0.017031	0.035456	1.000000	0.000022	0.000124	0.000066
50451	NaN	9.823487	0.195441	-1.055550	0.057399	0.013622	0.069103	1.000000	0.000019	0.000131	0.000062
50452	NaN	9.802275	0.155479	-1.084781	0.012026	-0.010742	0.050641	1.000000	0.000003	0.000139	0.000061
50453	NaN	9.841520	0.156738	-1.111364	0.008818	-0.034969	0.092559	1.000000	-0.000009	0.000146	0.000074
50454	NaN	9.818837	0.130814	-1.100229	-0.013812	-0.024133	0.068426	1.000000	-0.000031	0.000185	0.000081
50455	NaN	9.775100	0.118030	-1.034654	-0.013342	0.035919	0.017650	1.000000	-0.000047	0.000146	0.000064
50456	NaN	9.782182	0.111459	-1.104628	-0.035010	-0.032309	0.032181	1.000000	-0.000050	0.000134	0.000067
50457	NaN	9.816217	0.104040	-1.098566	-0.041342	-0.022900	0.065245	1.000000	-0.000028	0.000114	0.000053
50458	NaN	9.804228	0.148040	-1.068035	0.008430	-0.006510	0.050649	1.000000	-0.000019	0.000112	0.000059
50459	NaN	9.832804	0.180184	-1.106646	0.031952	-0.049195	0.083661	1.000000	-0.000042	0.000109	0.000069
50460	NaN	9.818838	0.186589	-1.122555	0.034837	-0.069843	0.071565	1.000000	-0.000036	0.000133	0.000064
50461	NaN	9.808661	0.167773	-1.054184	0.030398	-0.001704	0.053840	1.000000	-0.000050	0.000118	0.000051
50462	NaN	9.789422	0.165513	-1.037331	0.031901	0.010991	0.032874	1.000000	-0.000058	0.000106	0.000062
50463	NaN	9.805542	0.142519	-1.056669	0.006846	-0.001570	0.050652	1.000000	-0.000052	0.000111	0.000063
50464	NaN	9.837786	0.197963	-1.088538	0.054346	-0.043269	0.086873	1.000000	-0.000023	0.000096	0.000051
50465	NaN	9.818530	0.195804	-1.071830	0.054443	-0.029291	0.065919	1.000000	-0.000023	0.000115	0.000045
50466	NaN	9.802890	0.216880	-1.048288	0.080086	-0.014751	0.048142	1.000000	-0.000019	0.000096	0.000043
50467	NaN	9.829609	0.163407	-1.056227	0.027064	-0.008932	0.074816	1.000000	-0.000010	0.000113	0.000042
50468	NaN	9.815639	0.170052	-1.072394	0.029940	-0.029565	0.062734	1.000000	-0.000015	0.000105	0.000062
50469	NaN	9.833744	0.184511	-1.044965	0.050310	-0.005293	0.078013	1.000000	-0.000011	0.000125	0.000048
50470	NaN	9.812537	0.145025	-1.074719	0.004912	-0.029590	0.059548	1.000000	-0.000036	0.000105	0.000042
50471	NaN	9.807458	0.135073	-1.039723	0.003741	0.003555	0.050653	1.000000	-0.000020	0.000105	0.000071
50472	NaN	9.793488	0.141619	-1.056037	0.006618	-0.017079	0.038574	1.000000	-0.000046	0.000099	0.000049
50473	NaN	9.825717	0.148666	-1.010681	0.023870	0.026730	0.065927	1.000000	-0.000045	0.000088	0.000043
50474	NaN	9.822278	0.124757	-1.015786	-0.000581	0.025233	0.062731	1.000000	-0.000058	0.000089	0.000046
50475	NaN	9.763841	0.120257	-0.970500	0.004229	0.063669	-0.000203	1.000000	-0.000047	0.000064	0.000039
50476	NaN	9.813588	0.091399	-0.987026	-0.027095	0.058449	0.050625	1.000000	-0.000068	0.000056	0.000031
50477	NaN	9.808516	0.130587	-1.030281	0.001032	0.006170	0.050652	1.000000	-0.000053	0.000059	0.000037
50478	NaN	9.821091	0.136532	-0.971071	0.020299	0.062656	0.057019	1.000000	-0.000078	0.000050	0.000037
50479	NaN	9.840743	0.137346	-0.984589	0.017399	0.051347	0.077994	1.000000	-0.000064	0.000056	0.000022
50480	NaN	9.816153	0.175289	-1.013244	0.047599	0.011567	0.057057	1.000000	-0.000057	0.000058	0.000046
50481	NaN	9.840996	0.136050	-0.982243	0.016614	0.052447	0.077989	1.000000	-0.000080	0.000062	0.000043
50482	NaN	9.828704	0.128915	-1.039099	-0.003300	-0.003347	0.071630	1.000000	-0.000056	0.000066	0.000033
50483	NaN	9.811032	0.112678	-1.063161	-0.025428	-0.025387	0.056358	1.000000	-0.000058	0.000051	0.000058
50484	NaN	9.818457	0.158002	-1.048165	0.022509	-0.021369	0.062775	1.000000	-0.000025	0.000072	0.000047
50485	NaN	9.818618	0.157066	-1.046796	0.020759	-0.019639	0.062782	1.000000	-0.000035	0.000067	0.000054
50486	NaN	9.815126	0.132932	-1.052413	-0.003710	-0.021110	0.059571	1.000000	-0.000088	0.000062	0.000060
50487	NaN	9.793956	0.144872	-0.996825	0.020024	0.026002	0.032878	1.000000	-0.000042	0.000062	0.000053
50488	NaN	9.804882	0.161962	-1.061671	0.022369	-0.040298	0.050728	1.000000	-0.000059	0.000035	0.000042
50489	NaN	9.804967	0.161270	-1.060990	0.022068	-0.038834	0.050734	1.000000	-0.000045	0.000033	0.000039
50490	NaN	9.867381	0.187499	-1.097089	0.040271	-0.073654	0.116911	1.000000	-0.000045	0.000033	0.000039
50491	NaN	9.826922	0.247310	-1.104716	0.095846	-0.099287	0.078264	1.000000	-0.000054	0.000035	0.000034
50492	NaN	9.857092	0.216942	-1.106960	0.066305	-0.092103	0.108089	1.000000	-0.000058	0.000051	0.000058
50493	NaN	9.862661	0.224810	-1.138793	0.065861	-0.123711	0.117057	1.000000	-0.000043	0.000054	0.000065
50494	NaN	9.843251	0.222205	-1.123158	0.067377	-0.111013	0.096075	1.000000	-0.000051	0.000054	0.000082
50495	NaN	9.811094	0.164314	-1.088357	0.018927	-0.068146	0.059703	1.000000	-0.000044	0.000066	0.000071
50496	NaN	9.857727	0.211699	-1.102310	0.063088	-0.088778	0.108140	1.000000	-0.000035	0.000064	0.000077
50497	NaN	9.838322	0.208968	-1.086560	0.063876	-0.076314	0.087159	1.000000	-0.000032	0.000057	0.000081
50498	NaN	9.817037	0.169018	-1.117455	0.018462	-0.100600	0.068660	1.000000	-0.000018	0.000074	0.000071
50499	NaN	9.819128	0.204700	-1.069135	0.065108	-0.062366	0.066184	1.000000	-0.000028	0.000086	0.000094
50500	NaN	9.829781	0.172288	-1.056038	0.037420	-0.042825	0.074995	1.000000	-0.000035	0.000083	0.000070
50501	NaN	9.822610	0.124598	-1.068441	-0.012272	-0.046630	0.068529	1.000000	-0.000039	0.000064	0.000085
50502	NaN	9.820991	0.137051	-1.027166	0.010169	-0.011110	0.062812	1.000000	-0.000015	0.000084	0.000091
50503	NaN	9.807072	0.143114	-1.044006	0.011856	-0.031200	0.050779	1.000000	0.000000	0.000071	0.000082
50504	NaN	9.803571	0.118389	-1.049420	-0.012639	-0.032658	0.047540	1.000000	-0.000010	0.000084	0.000083
50505	NaN	9.812374	0.099984	-0.996405	-0.017452	0.023329	0.050611	1.000000	-0.000011	0.000096	0.000089
50506	NaN	9.798464	0.106099	-1.013183	-0.014611	0.002706	0.038580	1.000000	-0.000006	0.000066	0.000081
50507	NaN	9.812682	0.096906	-0.993673	-0.018736	0.025193	0.050604	1.000000	-0.000020	0.000051	0.000068
50508	NaN	9.832408	0.096790	-1.007053	-0.020997	0.013267	0.071600	1.000000	0.000012	0.000064	0.000069
50509	NaN	9.820252	0.089300	-1.064356	-0.041403	-0.042060	0.065303	1.000000	0.000000	0.000026	0.000044
50510	NaN	9.869974	0.111218	-0.994607	-0.003123	0.024984	0.107865	1.000000	-0.000016	0.000051	0.000059
50511	NaN	9.846795	0.085551	-0.985940	-0.027339	0.035808	0.083612	1.000000	-0.000012	0.000061	0.000079
50512	NaN	9.861711	0.125135	-1.043454	-0.000977	-0.028608	0.104821	1.000000	0.000004	0.000071	0.000074
50513	NaN	9.870412	0.106715	-0.990743	-0.006433	0.026310	0.107860	1.000000	-0.000011	0.000077	0.000095
50514	NaN	9.854703	0.126907	-0.967593	0.019217	0.040827	0.090115	1.000000	-0.000007	0.000096	0.000080
50515	NaN	9.794188	0.084493	-0.969117	-0.022690	0.042116	0.029577	1.000000	0.000003	0.000083	0.000080
50516	NaN	9.823246	0.115967	-1.008023	0.000449	-0.001285	0.062823	1.000000	0.000020	0.000071	0.000103
50517	NaN	9.846743	0.138602	-1.014186	0.022135	-0.010602	0.087087	1.000000	0.000022	0.000069	0.000062
50518	NaN	9.846926	0.136929	-1.012637	0.021752	-0.010207	0.087088	1.000000	0.000030	0.000089	0.000102
50519	NaN	9.809751	0.118473	-1.021686	0.002724	-0.019686	0.050816	1.000000	0.000031	0.000096	0.000090
50520	NaN	9.806230	0.093593	-1.026840	-0.021783	-0.021102	0.047555	1.000000	0.000052	0.000087	0.000082
50521	NaN	9.801737	0.131665	-1.069331	0.007246	-0.072996	0.047813	1.000000	0.000037	0.000101	0.000091
50522	NaN	9.812250	0.098899	-1.056066	-0.020459	-0.053392	0.056560	1.000000	0.000028	0.000084	0.000092
50523	NaN	9.816181	0.120218	-1.047488	0.004641	-0.050719	0.059825	1.000000	0.000032	0.000084	0.000084
50524	NaN	9.818220	0.104436	-1.085980	-0.018579	-0.085433	0.065575	1.000000	0.000018	0.000050	0.000077
50525	NaN	9.802470	0.124814	-1.063418	0.007090	-0.070321	0.047832	1.000000	0.000014	0.000069	0.000079
50526	NaN	9.802636	0.123233	-1.062069	0.006720	-0.069918	0.047836	1.000000	0.000014	0.000069	0.000079
50527	NaN	9.820559	0.136866	-1.035353	0.026792	-0.046813	0.063099	1.000000	-0.000004	0.000070	0.000091
50528	NaN	9.830966	0.104261	-1.022624	-0.000903	-0.027195	0.071835	1.000000	0.000011	0.000057	0.000082
50529	NaN	9.834860	0.125782	-1.014500	0.022816	-0.024377	0.075102	1.000000	0.000008	0.000064	0.000078
50530	NaN	9.811599	0.100092	-1.005781	0.000241	-0.013495	0.050826	1.000000	0.000006	0.000059	0.000068
50531	NaN	9.821158	0.130684	-1.030451	0.025855	-0.043550	0.063116	1.000000	0.000014	0.000069	0.000079
50532	NaN	9.825882	0.089328	-0.984778	-0.003094	0.009390	0.062819	1.000000	-0.000002	0.000066	0.000072
50533	NaN	9.835461	0.119879	-1.009378	0.021785	-0.020990	0.075112	1.000000	0.000014	0.000069	0.000079
50534	NaN	9.812197	0.094204	-1.000502	-0.000780	-0.010099	0.050830	1.000000	0.000009	0.000071	0.000065
50535	NaN	9.830120	0.108019	-0.973528	0.018391	0.012531	0.066087	1.000000	0.000016	0.000093	0.000083
50536	NaN	9.812558	0.091158	-0.997239	-0.002916	-0.009887	0.050830	1.000000	0.000011	0.000076	0.000075
50537	NaN	9.850121	0.105963	-0.984892	0.015085	0.001483	0.087106	1.000000	0.000023	0.000067	0.000085
50538	NaN	9.798900	0.095735	-1.012940	-0.001091	-0.029695	0.038849	1.000000	0.000014	0.000069	0.000079
50539	NaN	9.818711	0.095171	-1.026130	-0.003937	-0.041250	0.059869	1.000000	0.000006	0.000057	0.000090
50540	NaN	9.799205	0.092367	-1.010293	-0.002377	-0.028570	0.038852	1.000000	0.000009	0.000088	0.000081
50541	NaN	9.833004	0.084214	-1.004726	-0.008303	-0.019334	0.071850	1.000000	0.000022	0.000070	0.000062
50542	NaN	9.813472	0.081713	-0.989032	-0.006742	-0.006655	0.050831	1.000000	-0.000012	0.000061	0.000079
50543	NaN	9.833272	0.081340	-1.002333	-0.008721	-0.017444	0.071854	1.000000	0.000009	0.000052	0.000072
50544	NaN	9.823236	0.110701	-1.012838	0.018217	-0.036267	0.063163	1.000000	0.000014	0.000050	0.000086
50545	NaN	9.819571	0.085986	-1.018687	-0.006501	-0.036887	0.059885	1.000000	-0.000012	0.000061	0.000079
50546	NaN	9.833649	0.076762	-0.998987	-0.010073	-0.015427	0.071856	1.000000	0.000003	0.000066	0.000064
50547	NaN	9.828046	0.066483	-0.964783	-0.012428	0.018062	0.062799	1.000000	0.000005	0.000071	0.000073
50548	NaN	9.837744	0.096944	-0.989389	0.012553	-0.013019	0.075142	1.000000	0.000017	0.000062	0.000083
50549	NaN	9.822004	0.117351	-0.966785	0.038102	0.001383	0.057407	1.000000	0.000027	0.000067	0.000076
50550	NaN	9.855765	0.109041	-0.961402	0.032566	0.010587	0.090399	1.000000	0.000027	0.000067	0.000076
50551	NaN	9.818490	0.091304	-0.971065	0.013936	0.001107	0.054119	1.000000	0.000022	0.000070	0.000062
50552	NaN	9.812838	0.081080	-0.937056	0.012324	0.034821	0.045054	1.000000	0.000036	0.000049	0.000066
50553	NaN	9.860463	0.065089	-0.913541	0.002890	0.065129	0.090003	1.000000	0.000022	0.000051	0.000069
50554	NaN	9.838535	0.088366	-0.982300	0.010119	-0.009826	0.075149	1.000000	0.000046	0.000054	0.000059
50555	NaN	9.862176	0.111175	-0.988647	0.032177	-0.018990	0.099472	1.000000	0.000048	0.000059	0.000069
50556	NaN	9.846432	0.131513	-0.966172	0.057883	-0.004535	0.081737	1.000000	0.000022	0.000060	0.000097
50557	NaN	9.852842	0.075639	-0.960158	0.005804	0.014048	0.087105	1.000000	-0.000001	0.000083	0.000088
50558	NaN	9.855020	0.059615	-0.998096	-0.017489	-0.020591	0.092889	1.000000	0.000010	0.000105	0.000097
50559	NaN	9.796076	0.054651	-0.953275	-0.013090	0.016475	0.029792	1.000000	0.000009	0.000069	0.000087
50560	NaN	9.809727	0.108071	-0.970753	0.035988	-0.012820	0.045473	1.000000	-0.000010	0.000085	0.000082
50561	NaN	9.845869	0.022547	-0.967335	-0.045458	0.011540	0.080501	1.000000	-0.000016	0.000080	0.000081
50562	NaN	9.792701	0.026936	-0.955690	-0.038707	0.015397	0.026485	1.000000	-0.000017	0.000063	0.000065
50563	NaN	9.818374	0.035542	-1.001794	-0.039945	-0.029664	0.056600	1.000000	-0.000011	0.000049	0.000073
50564	NaN	9.822332	0.057235	-0.993786	-0.016213	-0.027453	0.059905	1.000000	-0.000041	0.000060	0.000075
50565	NaN	9.826300	0.079038	-0.985715	0.008095	-0.024267	0.063213	1.000000	-0.000043	0.000055	0.000065
50566	NaN	9.816728	0.045761	-0.958560	-0.017625	0.007672	0.050817	1.000000	-0.000084	0.000072	0.000079
50567	NaN	9.852485	0.023278	-0.992667	-0.046219	-0.018165	0.089581	1.000000	-0.000085	0.000084	0.000085
50568	NaN	9.815025	0.057014	-0.915676	0.004394	0.043573	0.045026	1.000000	-0.000097	0.000074	0.000082
50569	NaN	9.813322	0.018390	-0.961081	-0.042456	0.007401	0.047508	1.000000	-0.000096	0.000062	0.000076
50570	NaN	9.850877	0.033263	-0.948832	-0.023888	0.018437	0.083789	1.000000	-0.000080	0.000053	0.000077
50571	NaN	9.825132	0.084996	-0.937967	0.028710	0.013350	0.057430	1.000000	-0.000056	0.000057	0.000068
50572	NaN	9.882421	0.100810	-0.940143	0.045286	0.012159	0.114753	1.000000	-0.000048	0.000047	0.000085
50573	NaN	9.829230	0.105077	-0.928855	0.052346	0.016564	0.060739	1.000000	-0.000039	0.000065	0.000084
50574	NaN	9.857035	0.087541	-0.890630	0.045589	0.059114	0.084608	1.000000	-0.000020	0.000061	0.000096
50575	NaN	9.801820	0.117653	-0.963519	0.057726	-0.024423	0.036879	1.000000	0.000027	0.000051	0.000060
50576	NaN	9.835501	0.109396	-0.958399	0.052162	-0.015151	0.069854	1.000000	0.000045	0.000047	0.000071
50577	NaN	9.855343	0.108954	-0.971881	0.049891	-0.026528	0.090899	1.000000	0.000052	0.000040	0.000067
50578	NaN	9.812074	0.082399	-0.949309	0.029370	-0.003425	0.045502	1.000000	0.000051	0.000052	0.000073
50579	NaN	9.816285	0.052631	-1.027716	-0.016685	-0.072259	0.057111	1.000000	0.000065	0.000069	0.000063
50580	NaN	9.810495	0.042361	-0.993602	-0.018253	-0.038540	0.047993	1.000000	0.000025	0.000063	0.000066
50581	NaN	9.796796	0.048915	-1.011032	-0.015590	-0.058810	0.036073	1.000000	0.000003	0.000047	0.000070
50582	NaN	9.826579	0.017669	-1.012788	-0.045281	-0.051279	0.065725	1.000000	0.000037	0.000056	0.000053
50583	NaN	9.791059	0.037422	-0.976303	-0.017850	-0.023984	0.026952	1.000000	-0.000005	0.000035	0.000081
50584	NaN	9.830654	0.037931	-1.004135	-0.022247	-0.047957	0.069048	1.000000	0.000016	0.000046	0.000067
50585	NaN	9.854404	0.060728	-1.010602	-0.000377	-0.057425	0.093421	1.000000	0.000034	0.000044	0.000056
50586	NaN	9.828784	0.049611	-0.962608	0.000076	-0.011497	0.063239	1.000000	0.000030	0.000044	0.000064
50587	NaN	9.828881	0.048259	-0.961682	-0.001278	-0.010964	0.063240	1.000000	0.000022	0.000051	0.000068
50588	NaN	9.836809	0.030010	-0.909382	-0.006009	0.043830	0.066013	1.000000	0.000045	0.000047	0.000071
50589	NaN	9.840800	0.051718	-0.901571	0.017602	0.045686	0.069339	1.000000	0.000056	0.000040	0.000058
50590	NaN	9.827089	0.058390	-0.919309	0.020393	0.025057	0.057428	1.000000	0.000056	0.000040	0.000058
50591	NaN	9.843045	0.034989	-0.939542	-0.007104	0.011599	0.075149	1.000000	0.000059	0.000064	0.000062
50592	NaN	9.843170	0.033586	-0.938286	-0.007499	0.012045	0.075148	1.000000	0.000054	0.000064	0.000070
50593	NaN	9.853157	0.001111	-0.925448	-0.035423	0.032595	0.083718	1.000000	0.000054	0.000064	0.000070
50594	NaN	9.837434	0.021782	-0.902832	-0.009674	0.046997	0.065996	1.000000	0.000057	0.000076	0.000068
50595	NaN	9.823805	0.028107	-0.919850	-0.007202	0.026648	0.054090	1.000000	0.000068	0.000079	0.000083
50596	NaN	9.826033	0.012141	-0.958138	-0.030563	-0.007930	0.059906	1.000000	0.000029	0.000072	0.000086
50597	NaN	9.826153	0.010588	-0.956916	-0.031022	-0.007579	0.059905	1.000000	0.000055	0.000052	0.000064
50598	NaN	9.859801	0.002182	-0.951575	-0.036626	0.001759	0.092858	1.000000	0.000015	0.000058	0.000073
50599	NaN	9.850100	0.031795	-0.961878	-0.009302	-0.017958	0.084296	1.000000	0.000029	0.000075	0.000063
50600	NaN	9.840428	0.061333	-0.972021	0.017605	-0.036833	0.075737	1.000000	0.000020	0.000074	0.000080
50601	NaN	9.840583	0.059639	-0.970561	0.016973	-0.035265	0.075744	1.000000	0.000016	0.000074	0.000089
50602	NaN	9.830767	0.025960	-0.943080	-0.008692	-0.003299	0.063242	1.000000	0.000006	0.000088	0.000089
50603	NaN	9.834880	0.047433	-0.934406	0.015363	-0.000933	0.066583	1.000000	0.000014	0.000088	0.000072
50604	NaN	9.817370	0.030628	-0.958190	-0.005975	-0.023317	0.051350	1.000000	0.000015	0.000086	0.000094
50605	NaN	9.835208	0.044189	-0.931098	0.013526	0.000147	0.066586	1.000000	0.000062	0.000076	0.000059
50606	NaN	9.817696	0.027669	-0.954936	-0.007813	-0.022238	0.051351	1.000000	0.000020	0.000093	0.000074
50607	NaN	9.837660	0.027189	-0.967556	-0.010455	-0.033032	0.072415	1.000000	0.000042	0.000073	0.000060
50608	NaN	9.815864	0.039220	-0.912166	0.014174	0.014611	0.045526	1.000000	0.000032	0.000068	0.000067
50609	NaN	9.804415	0.031727	-0.969124	-0.006316	-0.041098	0.039471	1.000000	0.000018	0.000072	0.000048
50610	NaN	9.831977	0.014767	-0.930632	-0.013072	0.001534	0.063237	1.000000	0.000016	0.000065	0.000060
50611	NaN	9.858007	0.023109	-0.976441	-0.015330	-0.043086	0.093482	1.000000	0.000021	0.000063	0.000074
50612	NaN	9.828601	0.051842	-0.972357	0.013612	-0.049801	0.063896	1.000000	0.000018	0.000089	0.000064
50613	NaN	9.856187	0.034583	-0.933402	0.006101	-0.007425	0.087654	1.000000	0.000020	0.000094	0.000073
50614	NaN	9.803040	0.039403	-0.921623	0.012978	-0.003719	0.033649	1.000000	-0.000011	0.000099	0.000065
50615	NaN	9.812939	0.006909	-0.908179	-0.015365	0.016305	0.042165	1.000000	-0.000001	0.000083	0.000087
50616	NaN	9.797220	0.027640	-0.885579	0.010401	0.030676	0.024460	1.000000	-0.000017	0.000064	0.000064
50617	NaN	9.817145	0.027506	-0.898718	0.006212	0.019749	0.045525	1.000000	-0.000013	0.000047	0.000040
50618	NaN	9.815418	-0.010591	-0.944620	-0.041312	-0.016548	0.047985	1.000000	-0.000003	0.000033	0.000040
50619	NaN	9.803610	0.033926	-0.915755	0.007686	-0.000644	0.033656	1.000000	0.000000	0.000045	0.000037
50620	NaN	9.853464	0.066613	-0.969300	0.028383	-0.056026	0.088363	1.000000	-0.000011	0.000033	0.000057
50621	NaN	9.837262	0.024857	-0.909881	0.000620	0.010605	0.066589	1.000000	-0.000028	0.000042	0.000055
50622	NaN	9.866886	-0.006287	-0.911402	-0.029175	0.018266	0.096145	1.000000	-0.000008	0.000064	0.000048
50623	NaN	9.833483	-0.000270	-0.914697	-0.024804	0.009810	0.063210	1.000000	-0.000026	0.000046	0.000065
50624	NaN	9.835365	0.035903	-0.867104	0.021891	0.047017	0.060756	1.000000	-0.000008	0.000045	0.000054
50625	NaN	9.847793	0.052363	-0.931771	0.023541	-0.018640	0.079181	1.000000	-0.000020	0.000051	0.000067
50626	NaN	9.837753	0.019334	-0.904686	-0.002108	0.013340	0.066586	1.000000	-0.000029	0.000073	0.000055
50627	NaN	9.831681	0.009549	-0.870735	-0.004023	0.047294	0.057366	1.000000	-0.000037	0.000044	0.000050
50628	NaN	9.867459	-0.012937	-0.905103	-0.032725	0.021720	0.096127	1.000000	-0.000014	0.000057	0.000068
50629	NaN	9.830064	-0.030050	-0.915444	-0.051328	0.011795	0.059816	1.000000	0.000025	0.000046	0.000050
50630	NaN	9.848319	0.046761	-0.926494	0.021694	-0.015790	0.079190	1.000000	0.000016	0.000046	0.000067
50631	NaN	9.828572	0.044542	-0.911330	0.023242	-0.003147	0.058117	1.000000	0.000009	0.000053	0.000071
50632	NaN	9.811030	0.028121	-0.935852	0.001884	-0.025523	0.042883	1.000000	0.000013	0.000053	0.000063
50633	NaN	9.846427	0.056996	-0.883599	0.042297	0.020947	0.073358	1.000000	0.000026	0.000063	0.000066
50634	NaN	9.844746	0.018285	-0.929112	-0.005269	-0.015303	0.075808	1.000000	0.000015	0.000058	0.000073
50635	NaN	9.841442	0.056605	-0.972466	0.022715	-0.067337	0.076591	1.000000	0.000024	0.000056	0.000078
50636	NaN	9.848975	0.038520	-0.919881	0.018016	-0.012507	0.079202	1.000000	0.000034	0.000063	0.000049
50637	NaN	9.817835	0.030121	-0.962759	-0.000177	-0.055357	0.052130	1.000000	0.000014	0.000070	0.000078
50638	NaN	9.835597	0.043705	-0.935962	0.020332	-0.032047	0.067367	1.000000	0.000029	0.000056	0.000070
50639	NaN	9.815864	0.041470	-0.920521	0.021775	-0.019007	0.046290	1.000000	0.000038	0.000073	0.000069
50640	NaN	9.811965	0.016950	-0.926273	-0.002767	-0.020260	0.042895	1.000000	0.000032	0.000049	0.000074
50641	NaN	9.849551	0.031346	-0.913968	0.015057	-0.008696	0.079211	1.000000	0.000025	0.000044	0.000072
50642	NaN	9.842268	0.046759	-0.964601	0.018872	-0.062587	0.076630	1.000000	0.000037	0.000037	0.000059
50643	NaN	9.805919	0.003919	-0.891331	-0.005352	0.014013	0.033647	1.000000	0.000016	0.000008	0.000080
50644	NaN	9.825818	0.003561	-0.905136	-0.007885	0.002353	0.054729	1.000000	0.000024	0.000030	0.000034
50645	NaN	9.825872	0.002621	-0.904549	-0.008737	0.003470	0.054728	1.000000	0.000044	0.000030	0.000055
50646	NaN	9.836200	0.033386	-0.930033	0.016016	-0.027579	0.067388	1.000000	0.000033	0.000008	0.000046
50647	NaN	9.845791	0.001356	-0.918153	-0.012114	-0.007362	0.075812	1.000000	0.000020	0.000010	0.000049
50648	NaN	9.839546	-0.008416	-0.885148	-0.013612	0.026358	0.066551	1.000000	0.000020	0.000010	0.000049
50649	NaN	9.835533	-0.032448	-0.891793	-0.037222	0.025084	0.063144	1.000000	0.000003	0.000019	0.000048
50650	NaN	9.831514	-0.056397	-0.898467	-0.061764	0.023841	0.059734	1.000000	0.000004	0.000007	0.000042
50651	NaN	9.835564	-0.034174	-0.891388	-0.038752	0.026500	0.063134	1.000000	0.000004	0.000007	0.000042
50652	NaN	9.835569	-0.034843	-0.891304	-0.039183	0.026977	0.063131	1.000000	-0.000026	0.000001	0.000028
50653	NaN	9.842883	-0.052107	-0.840011	-0.044295	0.081647	0.065676	1.000000	-0.000036	-0.000016	0.000029
50654	NaN	9.845077	-0.066903	-0.880062	-0.067784	0.047165	0.071528	1.000000	-0.000036	-0.000016	0.000029
50655	NaN	9.833281	-0.022275	-0.852235	-0.017206	0.063191	0.057263	1.000000	-0.000032	-0.000006	0.000049
50656	NaN	9.868967	-0.044598	-0.887491	-0.045997	0.037726	0.096026	1.000000	-0.000038	0.000008	0.000041
50657	NaN	9.833296	-0.023927	-0.852012	-0.018701	0.064672	0.057251	1.000000	-0.000036	0.000013	0.000051
50658	NaN	9.813433	-0.025634	-0.837762	-0.017002	0.077260	0.036155	1.000000	-0.000045	-0.000004	0.000052
50659	NaN	9.842831	-0.056698	-0.840324	-0.047244	0.084475	0.065638	1.000000	-0.000037	-0.000004	0.000035
50660	NaN	9.831444	-0.063663	-0.898747	-0.067564	0.028868	0.059683	1.000000	-0.000022	-0.000001	0.000042
50661	NaN	9.808317	-0.025178	-0.929005	-0.038862	-0.011426	0.039476	1.000000	-0.000016	0.000007	0.000021
50662	NaN	9.861669	-0.032245	-0.938467	-0.046751	-0.014038	0.093467	1.000000	-0.000026	0.000018	0.000044
50663	NaN	9.836342	0.020318	-0.928910	0.005361	-0.018810	0.067420	1.000000	-0.000028	-0.000006	0.000040
50664	NaN	9.814634	-0.018615	-0.961324	-0.040118	-0.042903	0.048757	1.000000	-0.000030	0.000018	0.000052
50665	NaN	9.830107	0.009792	-0.895672	0.003915	0.015539	0.058132	1.000000	-0.000045	0.000015	0.000045
50666	NaN	9.826064	-0.014119	-0.902354	-0.020636	0.014300	0.054701	1.000000	-0.000036	0.000013	0.000050
50667	NaN	9.822844	0.024934	-0.946661	0.007226	-0.037733	0.055624	1.000000	-0.000044	0.000003	0.000039
50668	NaN	9.820649	0.038537	-0.906747	0.029859	-0.002308	0.049763	1.000000	-0.000027	0.000013	0.000034
50669	NaN	9.852252	-0.006604	-0.948937	-0.022000	-0.029005	0.085093	1.000000	-0.000010	-0.000008	0.000029
50670	NaN	9.822851	0.023180	-0.946626	0.006994	-0.035860	0.055631	1.000000	0.000017	-0.000011	0.000024
50671	NaN	9.849013	0.032035	-0.993553	0.006006	-0.080344	0.086037	1.000000	-0.000003	0.000014	0.000046
50672	NaN	9.844618	0.059733	-0.913848	0.051751	-0.009994	0.074295	1.000000	-0.000024	0.000006	0.000038
50673	NaN	9.821014	-0.016356	-0.993027	-0.041610	-0.070499	0.058077	1.000000	-0.000002	0.000002	0.000041
50674	NaN	9.814744	-0.026018	-0.960026	-0.043068	-0.036784	0.048769	1.000000	0.000003	0.000019	0.000048
50675	NaN	9.822950	0.019192	-0.945694	0.004288	-0.033044	0.055643	1.000000	0.000027	0.000022	0.000038
50676	NaN	9.827076	0.041359	-0.938326	0.027959	-0.030861	0.059084	1.000000	0.000003	0.000019	0.000048
50677	NaN	9.836580	0.009390	-0.926563	0.000407	-0.011431	0.067433	1.000000	-0.000005	-0.000010	0.000043
50678	NaN	9.832505	-0.014329	-0.933377	-0.024142	-0.012657	0.063993	1.000000	0.000022	0.000025	0.000024
50679	NaN	9.827119	0.039064	-0.937980	0.027033	-0.030235	0.059088	1.000000	0.000017	-0.000014	0.000046
50680	NaN	9.856475	0.007780	-0.940521	-0.002852	-0.022406	0.088536	1.000000	0.000033	0.000008	0.000046
50681	NaN	9.836617	0.006062	-0.926196	-0.001294	-0.010144	0.067434	1.000000	0.000033	0.000008	0.000046
50682	NaN	9.862820	0.014554	-0.972867	-0.002871	-0.054983	0.097856	1.000000	0.000032	0.000020	0.000052
50683	NaN	9.823116	0.011954	-0.944083	0.000499	-0.030125	0.055653	1.000000	0.000025	0.000027	0.000056
50684	NaN	9.816872	0.002062	-0.910658	-0.000961	0.003582	0.046332	1.000000	0.000041	0.000037	0.000051
50685	NaN	9.819120	-0.013076	-0.949951	-0.024709	-0.030870	0.052207	1.000000	0.000042	0.000009	0.000030
50686	NaN	9.795170	-0.037606	-0.942402	-0.047094	-0.020017	0.027652	1.000000	0.000000	0.000026	0.000044
50687	NaN	9.828632	-0.045785	-0.937709	-0.052604	-0.010445	0.060535	1.000000	0.000001	-0.000005	0.000045
50688	NaN	9.808746	-0.047331	-0.923595	-0.050877	0.002113	0.039427	1.000000	0.000012	0.000000	0.000038
50689	NaN	9.839039	-0.015541	-0.963634	-0.028871	-0.040871	0.073314	1.000000	0.000005	-0.000005	0.000036
50690	NaN	9.826408	-0.033828	-0.898069	-0.031339	0.026060	0.054648	1.000000	-0.000002	0.000002	0.000041
50691	NaN	9.828607	-0.048797	-0.937814	-0.055658	-0.008535	0.060520	1.000000	-0.000004	-0.000003	0.000031
50692	NaN	9.810633	-0.013017	-0.877038	-0.006730	0.040660	0.036992	1.000000	-0.000003	-0.000005	0.000053
50693	NaN	9.812785	-0.027901	-0.917271	-0.030786	0.006858	0.042866	1.000000	0.000007	-0.000045	0.000009
50694	NaN	9.830399	-0.013337	-0.892418	-0.010309	0.030194	0.058093	1.000000	-0.000030	-0.000030	0.000037
50695	NaN	9.826238	-0.036886	-0.899814	-0.034753	0.028700	0.054630	1.000000	-0.000031	-0.000015	0.000021
50696	NaN	9.826186	-0.037105	-0.900371	-0.035198	0.029180	0.054627	1.000000	-0.000016	-0.000041	0.000006
50697	NaN	9.859542	-0.044551	-0.896828	-0.041373	0.038462	0.087498	1.000000	-0.000019	-0.000053	0.000009
50698	NaN	9.863580	-0.021627	-0.890806	-0.017714	0.040647	0.090961	1.000000	-0.000016	-0.000041	0.000006
50699	NaN	9.849951	-0.013822	-0.910081	-0.015401	0.019994	0.079195	1.000000	-0.000015	-0.000024	0.000022
50700	NaN	9.889693	-0.012779	-0.938419	-0.020219	-0.003659	0.121415	1.000000	-0.000006	0.000024	0.000020
50701	NaN	9.873981	0.008815	-0.916929	0.005728	0.010734	0.103773	1.000000	-0.000007	0.000014	0.000055
50702	NaN	9.860465	0.015833	-0.935025	0.008467	-0.009942	0.092014	1.000000	-0.000014	0.000040	0.000052
50703	NaN	9.836537	-0.008844	-0.927028	-0.014256	0.001427	0.067429	1.000000	-0.000010	0.000040	0.000044
50704	NaN	9.799017	-0.025252	-0.937918	-0.033433	-0.008891	0.031085	1.000000	0.000006	0.000015	0.000030
50705	NaN	9.803167	-0.002835	-0.930765	-0.010243	-0.006465	0.034559	1.000000	0.000022	0.000006	0.000031
50706	NaN	9.811666	-0.008811	-1.003253	-0.032815	-0.074120	0.049808	1.000000	-0.000009	-0.000000	0.000017
50707	NaN	9.825230	-0.017133	-0.984589	-0.036180	-0.052384	0.061562	1.000000	-0.000031	0.000004	0.000014
50708	NaN	9.785483	-0.018750	-0.956217	-0.032235	-0.027791	0.019331	1.000000	-0.000018	0.000002	0.000011
50709	NaN	9.848212	-0.056674	-0.954321	-0.067380	-0.010357	0.081583	1.000000	0.000025	-0.000011	0.000007
50710	NaN	9.845070	-0.017276	-0.999089	-0.039565	-0.062559	0.082685	1.000000	-0.000018	-0.000020	0.000040
50711	NaN	9.856441	-0.011568	-0.940837	-0.020408	-0.005294	0.088540	1.000000	-0.000012	0.000007	0.000013
50712	NaN	9.838770	-0.026919	-0.966129	-0.041787	-0.027662	0.073313	1.000000	-0.000011	0.000023	0.000028
50713	NaN	9.854329	0.001727	-0.900398	0.002378	0.030287	0.082644	1.000000	-0.000008	0.000016	0.000032
50714	NaN	9.856556	-0.013334	-0.939610	-0.021208	-0.004128	0.088538	1.000000	-0.000001	0.000038	0.000050
50715	NaN	9.847235	0.016771	-0.950316	0.005565	-0.022824	0.080283	1.000000	0.000015	0.000060	0.000050
50716	NaN	9.837951	0.046821	-0.960741	0.032395	-0.041823	0.072033	1.000000	0.000008	0.000067	0.000054
50717	NaN	9.833922	0.022548	-0.966552	0.007496	-0.042599	0.068552	1.000000	-0.000010	0.000050	0.000072
50718	NaN	9.847612	0.013007	-0.946465	0.003867	-0.020940	0.080288	1.000000	-0.000006	0.000098	0.000079
50719	NaN	9.823723	-0.012132	-0.937750	-0.018266	-0.010385	0.055677	1.000000	0.000020	0.000058	0.000064
50720	NaN	9.790400	-0.005939	-0.941158	-0.013321	-0.019033	0.022820	1.000000	0.000018	0.000053	0.000054
50721	NaN	9.814539	0.016859	-0.947345	0.007923	-0.028865	0.047436	1.000000	0.000020	0.000048	0.000036
50722	NaN	9.814616	0.016037	-0.946564	0.007472	-0.028380	0.047438	1.000000	0.000006	0.000031	0.000045
50723	NaN	9.830434	-0.007167	-0.966812	-0.018380	-0.041248	0.065074	1.000000	0.000013	0.000055	0.000040
50724	NaN	9.844046	-0.016198	-0.947296	-0.022001	-0.019583	0.076803	1.000000	-0.000011	0.000033	0.000056
50725	NaN	9.828391	0.005049	-0.925364	0.003738	-0.005039	0.059169	1.000000	-0.000015	0.000052	0.000058
50726	NaN	9.831472	-0.035922	-0.879890	-0.024925	0.048164	0.057996	1.000000	-0.000002	0.000050	0.000055
50727	NaN	9.822213	-0.005890	-0.890459	0.002262	0.028815	0.049766	1.000000	-0.000012	0.000064	0.000056
50728	NaN	9.811750	-0.038676	-0.863687	-0.023230	0.060836	0.036863	1.000000	-0.000007	0.000033	0.000048
50729	NaN	9.831700	-0.038838	-0.877212	-0.025575	0.049221	0.057989	1.000000	-0.000009	0.000028	0.000038
50730	NaN	9.831745	-0.039413	-0.876683	-0.026020	0.049710	0.057985	1.000000	-0.000020	0.000026	0.000023
50731	NaN	9.859090	-0.107680	-0.925234	-0.102472	0.020837	0.089756	1.000000	-0.000012	0.000035	0.000034
50732	NaN	9.847573	-0.063115	-0.896622	-0.052476	0.036693	0.075614	1.000000	-0.000010	0.000021	0.000051
50733	NaN	9.800703	-0.048428	-0.919207	-0.044692	0.007008	0.031042	1.000000	-0.000006	0.000040	0.000036
50734	NaN	9.845471	-0.050387	-0.855414	-0.030537	0.072715	0.069689	1.000000	0.000034	0.000047	0.000033
50735	NaN	9.861265	-0.073475	-0.875730	-0.058260	0.059702	0.087308	1.000000	0.000011	0.000031	0.000037
50736	NaN	9.812186	-0.044324	-0.858448	-0.026954	0.064716	0.036829	1.000000	0.000018	0.000044	0.000026
50737	NaN	9.808057	-0.067836	-0.864840	-0.052108	0.063922	0.033313	1.000000	0.000010	0.000015	0.000021
50738	NaN	9.837317	-0.098687	-0.866902	-0.082072	0.071915	0.062643	1.000000	0.000007	0.000022	0.000017
50739	NaN	9.841523	-0.076056	-0.859577	-0.059046	0.074483	0.066138	1.000000	0.000010	0.000015	0.000021
50740	NaN	9.847941	-0.067568	-0.892247	-0.058577	0.041774	0.075560	1.000000	0.000023	-0.000004	0.000003
50741	NaN	9.847971	-0.067789	-0.891902	-0.059416	0.042143	0.075553	1.000000	0.000016	0.000039	0.000016
50742	NaN	9.852185	-0.045273	-0.884512	-0.035766	0.044300	0.079063	1.000000	-0.000011	0.000004	0.000035
50743	NaN	9.814624	-0.061555	-0.895707	-0.054944	0.034164	0.042704	1.000000	-0.000009	0.000028	0.000038
50744	NaN	9.805372	-0.031084	-0.906714	-0.028125	0.015126	0.034515	1.000000	-0.000015	0.000042	0.000030
50745	NaN	9.845260	-0.030351	-0.934239	-0.032792	-0.008596	0.076788	1.000000	-0.000005	0.000028	0.000030
50746	NaN	9.787815	-0.047172	-0.931046	-0.049665	-0.006946	0.019295	1.000000	0.000002	0.000033	0.000031
50747	NaN	9.836080	-0.000405	-0.944602	-0.006308	-0.027138	0.068607	1.000000	-0.000001	0.000041	0.000027
50748	NaN	9.840314	0.021762	-0.937148	0.017340	-0.024987	0.072128	1.000000	-0.000018	0.000009	0.000061
50749	NaN	9.819790	0.046096	-1.007103	0.024093	-0.099906	0.058184	1.000000	-0.000007	0.000007	0.000004
50750	NaN	9.797634	0.059395	-0.953240	0.049103	-0.052562	0.031126	1.000000	-0.000023	-0.000006	0.000032
50751	NaN	9.846772	0.029201	-0.969669	0.016683	-0.056379	0.081583	1.000000	-0.000014	0.000014	0.000009
50752	NaN	9.824915	-0.008846	-1.002210	-0.028812	-0.080392	0.062847	1.000000	0.000003	-0.000007	0.000004
50753	NaN	9.791209	0.050148	-0.920433	0.046229	-0.017584	0.021693	1.000000	-0.000006	-0.000005	-0.000002
50754	NaN	9.793431	0.035886	-0.960373	0.022568	-0.051944	0.027622	1.000000	-0.000023	-0.000015	0.000004
50755	NaN	9.845398	-0.033735	-0.932676	-0.037678	-0.003041	0.076774	1.000000	-0.000041	-0.000011	-0.000007
50756	NaN	9.865280	-0.033099	-0.947131	-0.040407	-0.014540	0.097916	1.000000	-0.000011	-0.000024	0.000013
50757	NaN	9.833795	0.011426	-0.905359	0.011174	0.013203	0.062688	1.000000	-0.000027	-0.000015	0.000012
50758	NaN	9.860750	-0.005028	-0.868231	0.004387	0.056099	0.086054	1.000000	-0.000015	-0.000005	0.000015
50759	NaN	9.818949	-0.044008	-0.886893	-0.039064	0.044354	0.046155	1.000000	-0.000030	-0.000011	0.000030
50760	NaN	9.823135	-0.021371	-0.879986	-0.015418	0.046496	0.049687	1.000000	-0.000031	0.000004	0.000014
50761	NaN	9.837956	0.033159	-0.898769	0.033044	0.017391	0.066223	1.000000	-0.000009	-0.000000	0.000017
50762	NaN	9.829548	-0.013119	-0.912908	-0.015613	0.014592	0.059148	1.000000	-0.000047	-0.000018	0.000013
50763	NaN	9.825328	-0.036198	-0.920148	-0.040365	0.013788	0.055607	1.000000	-0.000026	-0.000008	-0.000000
50764	NaN	9.825301	-0.036324	-0.920430	-0.040822	0.014284	0.055604	1.000000	-0.000038	-0.000020	0.000019
50765	NaN	9.809529	-0.014077	-0.899940	-0.014522	0.028191	0.037995	1.000000	-0.000012	-0.000041	-0.000002
50766	NaN	9.818758	-0.045375	-0.888937	-0.042238	0.048250	0.046124	1.000000	-0.000035	-0.000027	0.000023
50767	NaN	9.816481	-0.031267	-0.849798	-0.019191	0.083726	0.040183	1.000000	-0.000048	-0.000035	-0.000002
50768	NaN	9.814429	-0.068479	-0.897339	-0.066980	0.047755	0.042573	1.000000	-0.000022	-0.000046	0.000005
50769	NaN	9.824970	-0.036711	-0.923941	-0.043263	0.016697	0.055590	1.000000	-0.000039	-0.000037	0.000003
50770	NaN	9.858296	-0.044144	-0.920208	-0.049180	0.026429	0.088405	1.000000	-0.000031	-0.000044	-0.000001
50771	NaN	9.838311	-0.044814	-0.906941	-0.047806	0.039009	0.067247	1.000000	-0.000049	-0.000042	0.000010
50772	NaN	9.789141	-0.014992	-0.891068	-0.016403	0.043881	0.016825	1.000000	-0.000041	-0.000030	-0.000001
50773	NaN	9.800575	-0.060450	-0.919857	-0.067347	0.029355	0.030872	1.000000	-0.000034	-0.000039	0.000017
50774	NaN	9.818210	-0.045725	-0.894952	-0.046866	0.052705	0.046080	1.000000	-0.000052	-0.000035	0.000006
50775	NaN	9.830928	-0.028055	-0.961387	-0.045437	-0.013371	0.065064	1.000000	-0.000030	-0.000056	-0.000007
50776	NaN	9.835037	-0.004973	-0.955393	-0.021799	-0.011235	0.068616	1.000000	-0.000022	-0.000046	0.000005
50777	NaN	9.825648	0.026211	-0.967968	0.005098	-0.030595	0.060511	1.000000	-0.000038	-0.000049	-0.000003
50778	NaN	9.872476	0.010657	-0.945668	-0.003996	0.000366	0.104982	1.000000	-0.000039	-0.000037	0.000003
50779	NaN	9.858914	0.018886	-0.964866	-0.000733	-0.020711	0.093325	1.000000	-0.000025	-0.000020	-0.000006
50780	NaN	9.854655	-0.004131	-0.972382	-0.025292	-0.021854	0.089770	1.000000	-0.000037	-0.000032	0.000013
50781	NaN	9.838921	0.017728	-0.951736	0.000131	-0.007617	0.072171	1.000000	-0.000031	-0.000018	0.000043
50782	NaN	9.791979	0.032861	-0.975170	0.008310	-0.037597	0.027710	1.000000	-0.000041	-0.000013	0.000015
50783	NaN	9.838862	0.016901	-0.952360	-0.000669	-0.006307	0.072172	1.000000	-0.000009	-0.000019	0.000023
50784	NaN	9.787700	0.009234	-0.982851	-0.016592	-0.037926	0.024154	1.000000	-0.000014	-0.000017	0.000009
50785	NaN	9.840950	0.002089	-0.992971	-0.025013	-0.039802	0.078121	1.000000	-0.000012	-0.000031	0.000026
50786	NaN	9.805303	0.023521	-0.958466	0.003264	-0.013761	0.039367	1.000000	-0.000009	-0.000048	0.000002
50787	NaN	9.816672	-0.022018	-0.987515	-0.047726	-0.028495	0.053398	1.000000	-0.000011	-0.000043	0.000020
50788	NaN	9.825040	0.023698	-0.974183	0.000009	-0.024743	0.060529	1.000000	0.000003	-0.000026	0.000011
50789	NaN	9.840627	0.001070	-0.996171	-0.026226	-0.037886	0.078125	1.000000	0.000012	-0.000059	0.000017
50790	NaN	9.844772	0.023661	-0.989918	-0.002589	-0.035764	0.081692	1.000000	-0.000022	-0.000017	0.000026
50791	NaN	9.840502	0.000261	-0.997403	-0.026949	-0.037071	0.078126	1.000000	-0.000008	-0.000031	0.000017
50792	NaN	9.828998	0.045155	-0.969898	0.023114	-0.021377	0.064101	1.000000	0.000010	-0.000035	0.000028
50793	NaN	9.794229	-0.010819	-0.937684	-0.023264	0.021227	0.026281	1.000000	0.000015	-0.000035	0.000020
50794	NaN	9.833929	-0.009995	-0.966695	-0.028383	-0.002170	0.068605	1.000000	0.000024	-0.000037	0.000026
50795	NaN	9.818197	0.011825	-0.946322	-0.002212	0.011971	0.051009	1.000000	0.000018	-0.000042	0.000024
50796	NaN	9.827421	-0.019663	-0.935413	-0.029909	0.032088	0.059074	1.000000	0.000029	-0.000030	0.000005
50797	NaN	9.833705	-0.010998	-0.968962	-0.029922	-0.000464	0.068601	1.000000	0.000033	-0.000049	0.000003
50798	NaN	9.827246	-0.020041	-0.937248	-0.031185	0.033210	0.059066	1.000000	0.000012	-0.000059	0.000017
50799	NaN	9.840655	-0.028365	-0.919869	-0.034086	0.054400	0.070699	1.000000	-0.000005	-0.000067	-0.000000
50800	NaN	9.842655	-0.042681	-0.960832	-0.057831	0.020112	0.076657	1.000000	0.000023	-0.000054	0.000010
50801	NaN	9.817629	0.010519	-0.952216	-0.004568	0.014639	0.051005	1.000000	0.000008	-0.000040	0.000019
50802	NaN	9.846717	-0.020351	-0.955602	-0.034607	0.022823	0.080224	1.000000	0.000002	-0.000045	0.000017
50803	NaN	9.806869	-0.022141	-0.928326	-0.030462	0.047098	0.037887	1.000000	-0.000016	-0.000062	0.000035
50804	NaN	9.820289	-0.030559	-0.910934	-0.034060	0.068831	0.049509	1.000000	0.000006	-0.000062	-0.000007
50805	NaN	9.806644	-0.022548	-0.930692	-0.031372	0.047871	0.037880	1.000000	-0.000014	-0.000055	0.000022
50806	NaN	9.854750	0.024547	-0.946252	0.011674	0.027720	0.087372	1.000000	-0.000005	-0.000067	-0.000000
50807	NaN	9.852457	-0.012725	-0.994340	-0.035227	-0.008192	0.089760	1.000000	-0.000009	-0.000067	0.000008
50808	NaN	9.850255	0.001381	-0.955844	-0.012379	0.027084	0.083790	1.000000	-0.000032	-0.000063	0.000006
50809	NaN	9.847965	-0.035979	-1.003749	-0.059706	-0.009106	0.086180	1.000000	0.000009	-0.000052	0.000013
50810	NaN	9.829266	0.025885	-1.027910	-0.005685	-0.047879	0.070097	1.000000	0.000027	-0.000044	0.000030
50811	NaN	9.830114	-0.000631	-0.944558	-0.010133	0.040263	0.062616	1.000000	-0.000018	-0.000039	0.000046
50812	NaN	9.836327	0.007498	-0.978314	-0.009801	0.007590	0.072167	1.000000	0.000055	-0.000060	0.000018
50813	NaN	9.822674	0.014879	-0.997932	-0.006792	-0.013855	0.060548	1.000000	0.000047	-0.000044	0.000051
50814	NaN	9.782855	0.012945	-0.970633	-0.002534	0.010493	0.018204	1.000000	0.000066	-0.000067	0.000006
50815	NaN	9.772170	-0.019159	-0.946134	-0.027999	0.042235	0.005066	1.000000	0.000062	-0.000067	0.000014
50816	NaN	9.787598	-0.041659	-0.968982	-0.054898	0.029198	0.022651	1.000000	0.000083	-0.000104	-0.000015
50817	NaN	9.802959	-0.063779	-0.992445	-0.081720	0.016165	0.040235	1.000000	0.000098	-0.000130	-0.000029
50818	NaN	9.860203	-0.047264	-0.998028	-0.065930	0.015658	0.097777	1.000000	0.000102	-0.000149	-0.000031
50819	NaN	9.817184	-0.008215	-1.016906	-0.033205	-0.012843	0.056963	1.000000	0.000108	-0.000144	-0.000030
50820	NaN	9.868185	-0.000490	-0.989501	-0.018194	0.019819	0.104946	1.000000	0.000094	-0.000111	-0.000028
50821	NaN	9.861726	-0.009013	-0.958797	-0.019132	0.053498	0.095380	1.000000	0.000069	-0.000102	-0.000012
50822	NaN	9.867777	-0.000500	-0.993553	-0.018814	0.020827	0.104943	1.000000	0.000078	-0.000095	0.000021
50823	NaN	9.837256	-0.033284	-0.955379	-0.041214	0.065079	0.070608	1.000000	0.000047	-0.000101	0.000007
50824	NaN	9.851836	0.021050	-0.976199	0.007291	0.035583	0.087352	1.000000	0.000051	-0.000091	0.000027
50825	NaN	9.784830	0.035547	-0.986571	0.018672	0.017143	0.021784	1.000000	0.000072	-0.000081	0.000013
50826	NaN	9.842175	0.051288	-0.991213	0.034457	0.016643	0.079334	1.000000	0.000046	-0.000089	0.000013
50827	NaN	9.831509	0.019133	-0.967123	0.009065	0.048759	0.066169	1.000000	0.000036	-0.000094	0.000020
50828	NaN	9.806052	0.020572	-1.045772	-0.008475	-0.028000	0.048949	1.000000	0.000048	-0.000084	0.000023
50829	NaN	9.880110	0.076648	-1.108815	0.033060	-0.093887	0.129245	1.000000	0.000025	-0.000049	0.000020
50830	NaN	9.850868	0.106410	-1.107164	0.062206	-0.101148	0.100064	1.000000	-0.000006	-0.000048	0.000056
50831	NaN	9.813099	0.089911	-1.119070	0.043187	-0.111300	0.063701	1.000000	-0.000055	-0.000021	0.000053
50832	NaN	9.814978	0.074612	-1.159183	0.019388	-0.145553	0.069696	1.000000	-0.000086	-0.000017	0.000067
50833	NaN	9.777242	0.057931	-1.170727	0.000193	-0.156328	0.033326	1.000000	-0.000104	-0.000015	0.000078
50834	NaN	9.803244	0.066056	-1.217916	-0.001889	-0.200905	0.064099	1.000000	-0.000136	0.000003	0.000075
50835	NaN	9.787755	0.087215	-1.196605	0.024053	-0.187103	0.046523	1.000000	-0.000167	0.000006	0.000089
50836	NaN	9.783485	0.063079	-1.203380	-0.000495	-0.188198	0.042934	1.000000	-0.000168	0.000009	0.000067
50837	NaN	9.814522	0.017315	-1.245652	-0.053673	-0.214707	0.078107	1.000000	-0.000192	0.000006	0.000077
50838	NaN	9.799537	0.090157	-1.137862	0.043148	-0.129662	0.052155	1.000000	-0.000138	-0.000002	0.000065
50839	NaN	9.784702	0.034389	-1.119137	-0.005909	-0.099324	0.035365	1.000000	-0.000141	-0.000014	0.000068
50840	NaN	9.813766	0.002926	-1.122149	-0.035966	-0.091057	0.064541	1.000000	-0.000097	-0.000020	0.000051
50841	NaN	9.825432	0.008082	-1.064222	-0.015540	-0.034446	0.070142	1.000000	-0.000088	-0.000022	0.000057
50842	NaN	9.823505	0.021477	-1.024807	0.007376	0.000781	0.064149	1.000000	-0.000073	-0.000017	0.000041
50843	NaN	9.826537	-0.019348	-0.980886	-0.021139	0.054245	0.062531	1.000000	-0.000052	-0.000028	0.000056
50844	NaN	9.859906	-0.027942	-0.976985	-0.027097	0.064106	0.095298	1.000000	-0.000042	-0.000011	0.000055
50845	NaN	9.861149	0.034064	-1.014466	0.024106	0.012804	0.100527	1.000000	-0.000059	-0.000002	0.000054
50846	NaN	9.859910	-0.030022	-0.976882	-0.028391	0.064559	0.095292	1.000000	-0.000087	0.000026	0.000072
50847	NaN	9.847532	-0.049126	-0.910806	-0.029799	0.131473	0.076078	1.000000	-0.000087	0.000023	0.000094
50848	NaN	9.851351	-0.079203	-0.989624	-0.076973	0.062507	0.088066	1.000000	-0.000072	0.000057	0.000100
50849	NaN	9.853906	-0.043976	-0.941726	-0.030490	0.099388	0.085668	1.000000	-0.000096	0.000054	0.000110
50850	NaN	9.831713	-0.083555	-0.973322	-0.075996	0.075470	0.066859	1.000000	-0.000071	0.000045	0.000094
50851	NaN	9.820671	-0.039859	-0.944134	-0.026107	0.090902	0.052890	1.000000	-0.000080	0.000047	0.000089
50852	NaN	9.813373	-0.024346	-0.994876	-0.022702	0.036975	0.050921	1.000000	-0.000053	0.000013	0.000084
50853	NaN	9.843811	0.006559	-1.034553	-0.000499	-0.006255	0.085339	1.000000	-0.000069	0.000022	0.000083
50854	NaN	9.854488	0.036766	-1.059591	0.023869	-0.037341	0.098571	1.000000	-0.000032	0.000051	0.000092
50855	NaN	9.810612	0.010588	-1.037032	0.003921	-0.014821	0.052576	1.000000	-0.000065	0.000060	0.000124
50856	NaN	9.859600	-0.021607	-1.052645	-0.028558	-0.018403	0.102911	1.000000	-0.000061	0.000079	0.000109
50857	NaN	9.812807	-0.007740	-1.073972	-0.020463	-0.048613	0.058578	1.000000	-0.000038	0.000075	0.000112
50858	NaN	9.806712	-0.018456	-1.039610	-0.021628	-0.014970	0.048957	1.000000	-0.000055	0.000086	0.000088
50859	NaN	9.795224	-0.025957	-1.096320	-0.042016	-0.070709	0.043389	1.000000	-0.000033	0.000082	0.000091
50860	NaN	9.810829	-0.050049	-1.116161	-0.068966	-0.083669	0.060961	1.000000	-0.000075	0.000064	0.000096
50861	NaN	9.790173	-0.026165	-1.184638	-0.062230	-0.159025	0.047453	1.000000	-0.000030	0.000078	0.000073
50862	NaN	9.802349	-0.098943	-1.127535	-0.117834	-0.085983	0.053715	1.000000	-0.000077	0.000060	0.000086
50863	NaN	9.776334	-0.109916	-1.079374	-0.116870	-0.040871	0.022886	1.000000	-0.000090	0.000062	0.000089
50864	NaN	9.778340	-0.125371	-1.118184	-0.140689	-0.075103	0.028885	1.000000	-0.000045	0.000044	0.000066
50865	NaN	9.788129	-0.106699	-1.019164	-0.097798	0.016085	0.028437	1.000000	-0.000065	0.000041	0.000068
50866	NaN	9.816828	-0.061300	-1.018526	-0.052476	0.007852	0.056885	1.000000	-0.000053	0.000034	0.000055
50867	NaN	9.814980	-0.048137	-0.978011	-0.029886	0.043106	0.050877	1.000000	-0.000062	0.000036	0.000049
50868	NaN	9.799588	-0.026518	-0.956206	-0.003819	0.057043	0.033311	1.000000	-0.000054	0.000017	0.000039
50869	NaN	9.837381	-0.012158	-0.944548	0.014159	0.068543	0.069695	1.000000	-0.000046	0.000008	0.000057
50870	NaN	9.852537	0.041688	-0.962876	0.062605	0.039032	0.086601	1.000000	-0.000039	0.000020	0.000046
50871	NaN	9.835544	0.000037	-0.903879	0.036936	0.104226	0.063683	1.000000	-0.000066	0.000036	0.000058
50872	NaN	9.817672	-0.015471	-0.928883	0.015534	0.081868	0.048489	1.000000	-0.000042	0.000027	0.000042
50873	NaN	9.811377	-0.025105	-0.895777	0.014739	0.115516	0.038841	1.000000	-0.000038	0.000008	0.000040
50874	NaN	9.835913	-0.079318	-0.905610	-0.039440	0.122285	0.064311	1.000000	-0.000039	-0.000008	0.000025
50875	NaN	9.771080	-0.078244	-0.954312	-0.052705	0.069299	0.004810	1.000000	-0.000025	-0.000010	0.000022
50876	NaN	9.781741	-0.046809	-0.980769	-0.028359	0.038212	0.018095	1.000000	-0.000037	-0.000070	0.000026
50877	NaN	9.803994	-0.009514	-0.949041	0.016175	0.062927	0.036925	1.000000	-0.000079	-0.000031	0.000012
50878	NaN	9.785940	-0.024080	-0.975844	-0.005227	0.040567	0.021732	1.000000	-0.000096	-0.000088	0.000002
50879	NaN	9.850863	-0.102723	-0.931906	-0.068885	0.110971	0.081829	1.000000	-0.000111	-0.000094	0.000017
50880	NaN	9.834361	-0.054218	-0.996441	-0.038276	0.037327	0.072030	1.000000	-0.000054	-0.000090	0.000003
50881	NaN	9.887127	0.015822	-1.005265	0.028869	0.018655	0.125366	1.000000	-0.000070	-0.000081	0.000002
50882	NaN	9.847315	0.014635	-0.978275	0.033296	0.042863	0.082964	1.000000	-0.000042	-0.000068	0.000012
50883	NaN	9.836490	-0.017506	-0.953701	0.008093	0.075037	0.069655	1.000000	-0.000025	-0.000041	0.000022
50884	NaN	9.853413	0.022779	-1.012980	0.033119	0.010813	0.092624	1.000000	-0.000026	-0.000048	0.000035
50885	NaN	9.809237	-0.002046	-0.992525	0.013626	0.033172	0.046570	1.000000	-0.000024	-0.000044	0.000045
50886	NaN	9.784882	-0.026189	-0.986345	-0.008464	0.043949	0.021715	1.000000	-0.000028	-0.000053	0.000025
50887	NaN	9.789178	-0.003759	-0.980602	0.014705	0.045524	0.025367	1.000000	-0.000018	-0.000086	0.000031
50888	NaN	9.830486	-0.017145	-1.050683	-0.014020	-0.012403	0.073785	1.000000	-0.000024	-0.000091	0.000029
50889	NaN	9.827665	-0.054349	-1.099628	-0.062743	-0.048153	0.076138	1.000000	-0.000008	-0.000110	0.000003
50890	NaN	9.812039	-0.032138	-1.080516	-0.036659	-0.034241	0.058591	1.000000	0.000004	-0.000119	0.000012
50891	NaN	9.811803	-0.032169	-1.082658	-0.036839	-0.033517	0.058593	1.000000	0.000013	-0.000100	-0.000011
50892	NaN	9.844907	-0.039860	-1.080821	-0.042874	-0.023584	0.091330	1.000000	-0.000013	-0.000145	0.000002
50893	NaN	9.825541	-0.028013	-1.192879	-0.059835	-0.133562	0.083958	1.000000	-0.000002	-0.000102	-0.000018
50894	NaN	9.824612	-0.040029	-1.071049	-0.041374	-0.010808	0.070122	1.000000	0.000016	-0.000107	-0.000007
50895	NaN	9.804568	-0.040594	-1.059018	-0.039420	0.001583	0.048913	1.000000	-0.000011	-0.000122	0.000005
50896	NaN	9.839462	-0.062332	-1.096958	-0.068871	-0.023173	0.087663	1.000000	0.000010	-0.000111	-0.000009
50897	NaN	9.802548	-0.103536	-1.026502	-0.091544	0.053820	0.043433	1.000000	0.000017	-0.000118	-0.000013
50898	NaN	9.848102	-0.093198	-1.090031	-0.096241	-0.002503	0.095526	1.000000	0.000053	-0.000105	-0.000019
50899	NaN	9.814504	-0.085098	-1.096237	-0.090976	-0.011398	0.062790	1.000000	0.000064	-0.000100	-0.000026
50900	NaN	9.836802	-0.047489	-1.065417	-0.046376	0.013498	0.081639	1.000000	0.000083	-0.000088	0.000000
50901	NaN	9.825979	-0.079320	-1.041436	-0.071101	0.045756	0.068284	1.000000	0.000050	-0.000087	-0.000018
50902	NaN	9.827546	-0.093491	-1.082755	-0.094979	0.011568	0.074304	1.000000	0.000110	-0.000063	0.000016
50903	NaN	9.831622	0.006226	-1.074234	0.004115	-0.003292	0.077448	1.000000	0.000093	-0.000071	-0.000001
50904	NaN	9.835940	0.028765	-1.068446	0.027755	-0.001253	0.081116	1.000000	0.000083	-0.000059	0.000022
50905	NaN	9.822212	0.036470	-1.088048	0.030531	-0.022004	0.069600	1.000000	0.000089	-0.000054	0.000023
50906	NaN	9.831023	0.081668	-1.074960	0.078257	-0.018423	0.076941	1.000000	0.000063	-0.000050	0.000029
50907	NaN	9.826457	0.058083	-1.082999	0.054373	-0.019631	0.073271	1.000000	0.000053	-0.000048	0.000024
50908	NaN	9.792927	0.065171	-1.088544	0.059520	-0.028616	0.040548	1.000000	0.000014	-0.000092	0.000039
50909	NaN	9.826143	0.056845	-1.085915	0.053826	-0.018667	0.073276	1.000000	0.000039	-0.000063	0.000011
50910	NaN	9.810716	0.078771	-1.065765	0.079945	-0.004813	0.055736	1.000000	0.000017	-0.000061	0.000030
50911	NaN	9.841156	0.033641	-1.109843	0.026452	-0.031355	0.090825	1.000000	-0.000002	-0.000074	0.000004
50912	NaN	9.822909	0.018768	-1.136719	0.005036	-0.053710	0.075644	1.000000	0.000002	-0.000064	0.000023
50913	NaN	9.789376	0.026113	-1.142163	0.010653	-0.062643	0.042923	1.000000	-0.000004	-0.000069	0.000022
50914	NaN	9.766350	-0.023905	-1.052157	-0.015778	0.035690	0.010126	1.000000	-0.000018	-0.000067	0.000025
50915	NaN	9.767828	-0.038296	-1.093557	-0.039496	0.001207	0.016160	1.000000	-0.000049	-0.000092	0.000017
50916	NaN	9.757205	-0.147155	-1.072399	-0.140032	0.049979	0.003251	1.000000	-0.000044	-0.000101	-0.000019
50917	NaN	9.761470	-0.123631	-1.067396	-0.115463	0.052049	0.006929	1.000000	-0.000033	-0.000108	-0.000032
50918	NaN	9.784005	-0.162311	-1.040096	-0.146209	0.093622	0.026253	1.000000	0.000037	-0.000153	-0.000064
50919	NaN	9.812422	-0.114713	-1.043200	-0.100811	0.085234	0.054816	1.000000	-0.000019	-0.000138	-0.000057
50920	NaN	9.827397	-0.135999	-1.067381	-0.127826	0.072377	0.072349	1.000000	-0.000030	-0.000143	-0.000050
50921	NaN	9.863395	-0.105561	-1.019139	-0.085994	0.118789	0.102696	1.000000	-0.000038	-0.000134	-0.000068
50922	NaN	9.873905	-0.149530	-1.050285	-0.137100	0.104417	0.116550	1.000000	-0.000029	-0.000136	-0.000062
50923	NaN	9.882609	-0.102533	-1.038698	-0.089116	0.108046	0.123899	1.000000	-0.000041	-0.000118	-0.000044
50924	NaN	9.839819	-0.062602	-1.056031	-0.056768	0.079246	0.083355	1.000000	-0.000043	-0.000075	-0.000038
50925	NaN	9.853324	-0.070237	-1.039274	-0.059911	0.101051	0.094846	1.000000	-0.000047	-0.000094	-0.000023
50926	NaN	9.863684	-0.037869	-1.066493	-0.035659	0.069941	0.108247	1.000000	-0.000068	-0.000054	-0.000017
50927	NaN	9.816499	-0.021290	-1.089881	-0.027060	0.039638	0.064035	1.000000	-0.000078	-0.000040	-0.000016
50928	NaN	9.816406	-0.020932	-1.090726	-0.027498	0.040128	0.064031	1.000000	-0.000093	-0.000045	-0.000001
50929	NaN	9.779724	0.027238	-1.139755	0.005678	-0.021830	0.033239	1.000000	-0.000120	-0.000041	0.000005
50930	NaN	9.781154	0.013428	-1.180598	-0.018259	-0.055973	0.039292	1.000000	-0.000129	-0.000058	0.000006
50931	NaN	9.770243	0.058836	-1.153373	0.032518	-0.040749	0.025436	1.000000	-0.000130	-0.000077	0.000012
50932	NaN	9.753438	0.030672	-1.220093	-0.012423	-0.097714	0.016322	1.000000	-0.000123	-0.000063	-0.000021
50933	NaN	9.748484	0.085764	-1.226024	0.038314	-0.115431	0.012212	1.000000	-0.000143	-0.000113	-0.000035
50934	NaN	9.738955	0.118031	-1.239686	0.065049	-0.134764	0.004420	1.000000	-0.000110	-0.000131	-0.000033
50935	NaN	9.761546	0.079399	-1.212637	0.034957	-0.093239	0.023707	1.000000	-0.000118	-0.000141	-0.000044
50936	NaN	9.835213	0.137259	-1.277254	0.075713	-0.158261	0.104513	1.000000	-0.000092	-0.000145	-0.000050
50937	NaN	9.869766	0.116733	-1.315744	0.046587	-0.183167	0.143284	1.000000	-0.000083	-0.000116	-0.000045
50938	NaN	9.911861	0.155653	-1.299602	0.088719	-0.170153	0.183380	1.000000	-0.000074	-0.000090	-0.000018
50939	NaN	9.917922	0.087927	-1.336686	0.013941	-0.186084	0.193552	1.000000	-0.000047	-0.000046	-0.000008
50940	NaN	9.892224	0.078196	-1.289901	0.015455	-0.140680	0.162583	1.000000	-0.000026	0.000002	0.000028
50941	NaN	9.842474	0.044413	-1.234927	-0.004050	-0.085122	0.106690	1.000000	-0.000019	0.000042	0.000039
50942	NaN	9.827401	0.065758	-1.212390	0.022122	-0.071351	0.089153	1.000000	0.000011	0.000060	0.000059
50943	NaN	9.741300	0.002509	-1.207710	-0.039833	-0.061238	0.002921	1.000000	-0.000020	0.000054	0.000045
50944	NaN	9.750623	-0.029541	-1.195729	-0.067428	-0.040910	0.010706	1.000000	-0.000034	0.000020	0.000038
50945	NaN	9.731209	-0.107642	-1.184097	-0.140239	-0.011999	-0.010122	1.000000	-0.000033	-0.000001	0.000004
50946	NaN	9.717469	-0.099100	-1.202653	-0.137593	-0.032840	-0.021600	1.000000	-0.000034	-0.000018	-0.000012
50947	NaN	9.721895	-0.075785	-1.196065	-0.114067	-0.030891	-0.017914	1.000000	-0.000026	-0.000036	-0.000022
50948	NaN	9.788612	-0.090750	-1.189053	-0.125704	-0.011305	0.047490	1.000000	-0.000031	-0.000053	-0.000029
50949	NaN	9.781021	-0.085304	-1.117701	-0.103195	0.056897	0.031652	1.000000	-0.000035	-0.000084	-0.000021
50950	NaN	9.832468	-0.077921	-1.089916	-0.088217	0.089756	0.079511	1.000000	-0.000040	-0.000082	-0.000034
50951	NaN	9.812625	-0.077834	-1.076999	-0.086006	0.101975	0.058270	1.000000	-0.000027	-0.000072	-0.000031
50952	NaN	9.844145	0.006089	-1.031661	0.006839	0.129729	0.084518	1.000000	-0.000011	-0.000081	-0.000030
50953	NaN	9.854414	0.038595	-1.058809	0.031159	0.098423	0.097982	1.000000	-0.000012	-0.000069	-0.000024
50954	NaN	9.860211	0.047916	-1.092848	0.031264	0.065801	0.107750	1.000000	-0.000021	-0.000058	-0.000002
50955	NaN	9.843477	0.084149	-1.032315	0.080669	0.114044	0.084144	1.000000	-0.000025	-0.000039	0.000000
50956	NaN	9.858296	0.138709	-1.051692	0.128944	0.084382	0.101321	1.000000	-0.000039	-0.000046	0.000038
50957	NaN	9.844475	0.146321	-1.070850	0.132069	0.063408	0.089856	1.000000	-0.000064	-0.000038	0.000053
50958	NaN	9.800561	0.121296	-1.049939	0.112638	0.085960	0.043682	1.000000	-0.000049	-0.000051	0.000044
50959	NaN	9.844554	0.067728	-1.075748	0.055724	0.081118	0.090210	1.000000	-0.000041	-0.000051	0.000028
50960	NaN	9.836615	0.084739	-1.127893	0.058890	0.027159	0.088530	1.000000	0.000005	-0.000052	0.000021
50961	NaN	9.808998	0.101070	-1.165618	0.065029	-0.015335	0.065615	1.000000	0.000014	-0.000054	0.000026
50962	NaN	9.824036	0.078476	-1.188271	0.037964	-0.028092	0.083150	1.000000	-0.000006	-0.000055	0.000005
50963	NaN	9.796654	0.018022	-1.228996	-0.031456	-0.053584	0.060576	1.000000	-0.000013	-0.000048	0.000010
50964	NaN	9.757189	0.016623	-1.201225	-0.026789	-0.029563	0.018099	1.000000	-0.000029	-0.000070	0.000009
50965	NaN	9.786187	-0.091117	-1.208826	-0.132511	-0.004367	0.047406	1.000000	-0.000023	-0.000062	-0.000012
50966	NaN	9.781501	-0.113620	-1.217454	-0.157027	-0.005352	0.043690	1.000000	-0.000074	-0.000090	-0.000018
50967	NaN	9.796417	-0.135127	-1.240991	-0.183340	-0.017953	0.061226	1.000000	-0.000071	-0.000106	-0.000042
50968	NaN	9.758258	-0.149170	-1.253940	-0.202236	-0.028512	0.024817	1.000000	-0.000030	-0.000093	-0.000057
50969	NaN	9.781080	-0.187528	-1.226344	-0.232517	0.013010	0.044005	1.000000	-0.000048	-0.000101	-0.000074
50970	NaN	9.807736	-0.190010	-1.315541	-0.258577	-0.065934	0.081111	1.000000	0.000003	-0.000102	-0.000089
50971	NaN	9.766860	-0.175636	-1.248647	-0.230237	-0.007390	0.032538	1.000000	0.000021	-0.000104	-0.000101
50972	NaN	9.760792	-0.182718	-1.217844	-0.231164	0.026205	0.022732	1.000000	0.000011	-0.000101	-0.000106
50973	NaN	9.760550	-0.180613	-1.220100	-0.231421	0.026686	0.022725	1.000000	0.000003	-0.000130	-0.000111
50974	NaN	9.784408	-0.154606	-1.229901	-0.210327	0.016879	0.047672	1.000000	0.000032	-0.000120	-0.000142
50975	NaN	9.793104	-0.106087	-1.218115	-0.162095	0.020041	0.055102	1.000000	0.000042	-0.000134	-0.000142
50976	NaN	9.797312	-0.080438	-1.213395	-0.138437	0.021984	0.058810	1.000000	0.000029	-0.000113	-0.000146
50977	NaN	9.816277	0.000002	-1.227015	-0.066089	-0.006265	0.079757	1.000000	0.000040	-0.000110	-0.000130
50978	NaN	9.800850	0.024657	-1.207607	-0.039860	0.007422	0.062227	1.000000	0.000043	-0.000117	-0.000126
50979	NaN	9.842969	0.065221	-1.191648	0.002871	0.020251	0.102347	1.000000	0.000037	-0.000091	-0.000128
50980	NaN	9.813739	0.098054	-1.190140	0.032150	0.012578	0.073380	1.000000	0.000051	-0.000095	-0.000109
50981	NaN	9.792592	0.113408	-1.137434	0.058490	0.059338	0.046041	1.000000	0.000016	-0.000082	-0.000121
50982	NaN	9.801775	0.084469	-1.127890	0.030937	0.079734	0.053758	1.000000	0.000029	-0.000084	-0.000124
50983	NaN	9.788455	0.158514	-1.184996	0.085570	0.007038	0.048135	1.000000	0.000021	-0.000113	-0.000129
50984	NaN	9.765399	0.123541	-1.219676	0.040014	-0.016713	0.029264	1.000000	0.000012	-0.000111	-0.000135
50985	NaN	9.797278	0.132434	-1.178140	0.057242	0.027756	0.055856	1.000000	-0.000011	-0.000107	-0.000137
50986	NaN	9.784400	0.129601	-1.238403	0.036225	-0.027654	0.050519	1.000000	-0.000024	-0.000105	-0.000134
50987	NaN	9.808124	0.155869	-1.247894	0.057921	-0.037835	0.075489	1.000000	-0.000028	-0.000105	-0.000126
50988	NaN	9.809083	0.144368	-1.289985	0.033856	-0.071883	0.081589	1.000000	-0.000040	-0.000117	-0.000107
50989	NaN	9.799311	0.177645	-1.303200	0.060708	-0.091497	0.073886	1.000000	-0.000079	-0.000095	-0.000082
50990	NaN	9.794596	0.156594	-1.312270	0.036194	-0.092443	0.070168	1.000000	-0.000065	-0.000108	-0.000091
50991	NaN	9.798732	0.181368	-1.307033	0.060317	-0.090759	0.073895	1.000000	-0.000100	-0.000086	-0.000075
50992	NaN	9.792799	0.174059	-1.275969	0.059453	-0.057182	0.064078	1.000000	-0.000099	-0.000097	-0.000081
50993	NaN	9.793762	0.161929	-1.317833	0.035531	-0.091304	0.070181	1.000000	-0.000113	-0.000103	-0.000066
50994	NaN	9.773896	0.162988	-1.305251	0.037701	-0.079089	0.048936	1.000000	-0.000120	-0.000105	-0.000089
50995	NaN	9.787523	0.156603	-1.288986	0.034564	-0.057263	0.060364	1.000000	-0.000118	-0.000100	-0.000079
50996	NaN	9.782790	0.135464	-1.298369	0.010053	-0.058196	0.056640	1.000000	-0.000108	-0.000133	-0.000074
50997	NaN	9.800803	0.151553	-1.275309	0.030867	-0.034930	0.071793	1.000000	-0.000108	-0.000105	-0.000052
50998	NaN	9.782140	0.138689	-1.302920	0.009376	-0.057225	0.056646	1.000000	-0.000089	-0.000128	-0.000097
50999	NaN	9.809696	0.123813	-1.268804	0.002898	-0.013867	0.079488	1.000000	-0.000097	-0.000112	-0.000065
51000	NaN	9.809350	0.125424	-1.271318	0.002474	-0.013384	0.079489	1.000000	-0.000098	-0.000147	-0.000074
51001	NaN	9.785052	0.103415	-1.266435	-0.018515	-0.002533	0.054503	1.000000	-0.000085	-0.000118	-0.000078
51002	NaN	9.808678	0.128646	-1.276173	0.002540	-0.012372	0.079490	1.000000	-0.000078	-0.000116	-0.000054
51003	NaN	9.783272	0.119891	-1.230940	0.004527	0.032825	0.048393	1.000000	-0.000072	-0.000111	-0.000052
51004	NaN	9.787395	0.144111	-1.225823	0.028194	0.034705	0.052124	1.000000	-0.000098	-0.000100	-0.000059
51005	NaN	9.787077	0.145349	-1.228209	0.028071	0.035013	0.052123	1.000000	-0.000082	-0.000147	-0.000045
51006	NaN	9.778277	0.164358	-1.281870	0.031051	-0.018968	0.050557	1.000000	-0.000098	-0.000128	-0.000081
51007	NaN	9.773502	0.143151	-1.291736	0.007219	-0.020198	0.046823	1.000000	-0.000075	-0.000151	-0.000072
51008	NaN	9.805476	0.150871	-1.251158	0.024881	0.024421	0.073379	1.000000	-0.000079	-0.000151	-0.000064
51009	NaN	9.796588	0.169947	-1.305033	0.028182	-0.029493	0.071819	1.000000	-0.000069	-0.000146	-0.000071
51010	NaN	9.797289	0.157805	-1.347860	0.004050	-0.063485	0.077938	1.000000	-0.000069	-0.000146	-0.000071
51011	NaN	9.791391	0.149922	-1.317881	0.003616	-0.029940	0.068087	1.000000	-0.000049	-0.000146	-0.000050
51012	NaN	9.752004	0.149352	-1.291317	0.008452	-0.006036	0.025569	1.000000	-0.000085	-0.000140	-0.000049
51013	NaN	9.772189	0.137818	-1.348749	-0.018378	-0.052032	0.052947	1.000000	-0.000073	-0.000146	-0.000062
51014	NaN	9.746814	0.128904	-1.304250	-0.016529	-0.006753	0.021831	1.000000	-0.000062	-0.000163	-0.000041
51015	NaN	9.764781	0.144651	-1.282274	0.004433	0.016631	0.036973	1.000000	-0.000079	-0.000182	-0.000064
51016	NaN	9.797807	0.138439	-1.282508	-0.001604	0.026787	0.069635	1.000000	-0.000077	-0.000196	-0.000047
51017	NaN	9.755109	0.164861	-1.340732	0.006620	-0.037079	0.035433	1.000000	-0.000074	-0.000201	-0.000066
51018	NaN	9.753515	0.180008	-1.304775	0.029945	-0.002146	0.029314	1.000000	-0.000084	-0.000217	-0.000065
51019	NaN	9.791843	0.183057	-1.338443	0.024259	-0.025286	0.071841	1.000000	-0.000083	-0.000220	-0.000043
51020	NaN	9.780521	0.165935	-1.276861	0.023170	0.041367	0.052111	1.000000	-0.000079	-0.000198	-0.000080
51021	NaN	9.814441	0.146407	-1.317777	-0.005954	0.016831	0.090893	1.000000	-0.000024	-0.000239	-0.000069
51022	NaN	9.837626	0.171329	-1.329998	0.015069	0.006970	0.115901	1.000000	-0.000054	-0.000238	-0.000033
51023	NaN	9.817588	0.171372	-1.319599	0.017929	0.019127	0.094636	1.000000	-0.000014	-0.000206	-0.000054
51024	NaN	9.817029	0.172242	-1.323636	0.017514	0.019610	0.094635	1.000000	-0.000026	-0.000206	-0.000029
51025	NaN	9.802342	0.181270	-1.345761	0.020529	-0.001324	0.083242	1.000000	-0.000013	-0.000208	-0.000032
51026	NaN	9.787667	0.190269	-1.367664	0.023076	-0.022231	0.071851	1.000000	-0.000011	-0.000184	-0.000028
51027	NaN	9.766869	0.203365	-1.316518	0.049221	0.024073	0.044457	1.000000	-0.000029	-0.000190	-0.000005
51028	NaN	9.781398	0.181582	-1.341979	0.022060	0.011524	0.061977	1.000000	-0.000010	-0.000168	-0.000012
51029	NaN	9.791516	0.137083	-1.374565	-0.029003	-0.002403	0.075749	1.000000	-0.000024	-0.000182	-0.000025
51030	NaN	9.757437	0.145014	-1.381483	-0.023799	-0.011624	0.043092	1.000000	-0.000031	-0.000195	-0.000015
51031	NaN	9.794874	0.160783	-1.374747	-0.005701	-0.000430	0.079496	1.000000	0.000000	-0.000182	-0.000013
51032	NaN	9.784592	0.192211	-1.389222	0.020921	-0.020020	0.071861	1.000000	-0.000001	-0.000189	-0.000001
51033	NaN	9.793857	0.161025	-1.381940	-0.006123	0.000314	0.079496	1.000000	-0.000007	-0.000175	-0.000009
51034	NaN	9.808325	0.139306	-1.407399	-0.033298	-0.012208	0.097013	1.000000	-0.000022	-0.000178	-0.000016
51035	NaN	9.774267	0.147030	-1.413999	-0.027501	-0.021692	0.064361	1.000000	0.000013	-0.000172	-0.000010
51036	NaN	9.812500	0.148953	-1.447053	-0.033268	-0.044576	0.106900	1.000000	0.000009	-0.000172	-0.000002
51037	NaN	9.835069	0.186268	-1.417943	0.012024	-0.020144	0.125788	1.000000	0.000023	-0.000158	0.000011
51038	NaN	9.772882	0.146649	-1.423582	-0.028272	-0.020304	0.064362	1.000000	0.000035	-0.000148	0.000014
51039	NaN	9.796276	0.169895	-1.433924	-0.007289	-0.030411	0.089385	1.000000	0.000016	-0.000123	0.000038
51040	NaN	9.795257	0.182831	-1.396188	0.016150	0.004444	0.083249	1.000000	0.000023	-0.000110	0.000027
51041	NaN	9.743434	0.161496	-1.466586	-0.023054	-0.061926	0.041606	1.000000	0.000016	-0.000104	0.000032
51042	NaN	9.810252	0.145892	-1.462526	-0.034681	-0.041988	0.106906	1.000000	0.000026	-0.000117	0.000031
51043	NaN	9.833704	0.169125	-1.472438	-0.013442	-0.052221	0.131934	1.000000	0.000033	-0.000105	0.000020
51044	NaN	9.780518	0.175069	-1.462641	-0.005549	-0.049801	0.078015	1.000000	0.000042	-0.000096	0.000032
51045	NaN	9.766046	0.182523	-1.482303	-0.002859	-0.070829	0.066642	1.000000	0.000016	-0.000075	0.000054
51046	NaN	9.742085	0.157705	-1.475929	-0.024655	-0.059949	0.041614	1.000000	0.000023	-0.000063	0.000043
51047	NaN	9.698807	0.132037	-1.454587	-0.043408	-0.037686	-0.004690	1.000000	0.000013	-0.000068	0.000050
51048	NaN	9.776521	0.121111	-1.555650	-0.078549	-0.118214	0.086551	1.000000	0.000031	-0.000082	0.000032
51049	NaN	9.765867	0.165370	-1.528013	-0.028085	-0.103667	0.072797	1.000000	0.000042	-0.000077	0.000025
51050	NaN	9.746673	0.213674	-1.591191	0.001545	-0.177831	0.063727	1.000000	0.000042	-0.000077	0.000025
51051	NaN	9.761345	0.190953	-1.614476	-0.025648	-0.190441	0.081247	1.000000	0.000050	-0.000048	0.000031
51052	NaN	9.770336	0.172640	-1.564896	-0.029103	-0.135474	0.082715	1.000000	0.000022	-0.000080	0.000027
51053	NaN	9.760598	0.139721	-1.540586	-0.053148	-0.103037	0.069052	1.000000	0.000037	-0.000065	0.000040
51054	NaN	9.769932	0.171142	-1.567585	-0.029326	-0.134401	0.082729	1.000000	0.000032	-0.000063	0.000026
51055	NaN	9.745738	0.210078	-1.597389	-0.000212	-0.175541	0.063768	1.000000	0.000030	-0.000039	0.000038
51056	NaN	9.773565	0.206067	-1.522206	0.017611	-0.097931	0.080353	1.000000	0.000045	-0.000037	0.000045
51057	NaN	9.774056	0.191426	-1.562905	-0.006380	-0.131903	0.086507	1.000000	0.000055	-0.000032	0.000038
51058	NaN	9.797426	0.164488	-1.494824	-0.012605	-0.055511	0.099319	1.000000	0.000072	-0.000041	0.000039
51059	NaN	9.768239	0.193900	-1.491511	0.016769	-0.063796	0.070447	1.000000	0.000111	-0.000035	0.000036
51060	NaN	9.763108	0.183769	-1.459298	0.016269	-0.030246	0.060530	1.000000	0.000092	-0.000030	0.000025
51061	NaN	9.777829	0.161090	-1.482099	-0.010645	-0.042663	0.078044	1.000000	0.000078	-0.000045	0.000012
51062	NaN	9.768204	0.128394	-1.457053	-0.035215	-0.010296	0.064355	1.000000	0.000116	-0.000027	0.000015
51063	NaN	9.773183	0.136697	-1.490436	-0.035453	-0.042681	0.074280	1.000000	0.000129	-0.000020	0.000041
51064	NaN	9.797489	0.145445	-1.538608	-0.038568	-0.086911	0.105489	1.000000	0.000151	-0.000012	0.000049
51065	NaN	9.801665	0.117241	-1.455006	-0.041273	0.001130	0.096991	1.000000	0.000150	-0.000000	0.000055
51066	NaN	9.753870	0.131537	-1.475974	-0.033297	-0.029615	0.053001	1.000000	0.000162	0.000009	0.000058
51067	NaN	9.787501	0.122470	-1.472597	-0.038692	-0.019347	0.085638	1.000000	0.000162	0.000028	0.000052
51068	NaN	9.720996	0.122124	-1.518398	-0.052040	-0.072676	0.026531	1.000000	0.000152	0.000004	0.000065
51069	NaN	9.749548	0.103919	-1.482292	-0.057889	-0.029363	0.049232	1.000000	0.000144	0.000014	0.000047
51070	NaN	9.763648	0.157423	-1.500858	-0.010108	-0.059692	0.066711	1.000000	0.000136	0.000013	0.000064
51071	NaN	9.768373	0.115559	-1.456994	-0.036675	-0.005849	0.064353	1.000000	0.000128	-0.000008	0.000047
51072	NaN	9.730286	0.098915	-1.467381	-0.055608	-0.016297	0.027948	1.000000	0.000116	-0.000018	0.000044
51073	NaN	9.725183	0.088871	-1.434875	-0.054924	0.017304	0.018011	1.000000	0.000122	-0.000022	0.000017
51074	NaN	9.748884	0.111926	-1.443544	-0.034028	0.007254	0.043066	1.000000	0.000136	-0.000055	0.000014
51075	NaN	9.743672	0.102143	-1.411812	-0.034151	0.040581	0.033122	1.000000	0.000120	-0.000065	0.000019
51076	NaN	9.777088	0.094063	-1.409757	-0.040097	0.050885	0.065749	1.000000	0.000141	-0.000036	-0.000001
51077	NaN	9.810500	0.086071	-1.407723	-0.045843	0.061046	0.098376	1.000000	0.000137	-0.000066	0.000008
51078	NaN	9.790995	0.084705	-1.394289	-0.043419	0.073141	0.077083	1.000000	0.000170	-0.000084	0.000009
51079	NaN	9.786096	0.124373	-1.439509	-0.016916	0.020210	0.079463	1.000000	0.000186	-0.000044	0.000004
51080	NaN	9.833809	0.107752	-1.419265	-0.025571	0.051978	0.123427	1.000000	0.000190	-0.000034	0.000023
51081	NaN	9.828522	0.160889	-1.423768	0.025798	0.032931	0.119638	1.000000	0.000179	-0.000009	0.000030
51082	NaN	9.780897	0.112365	-1.407995	-0.017117	0.054565	0.069506	1.000000	0.000185	-0.000004	0.000032
51083	NaN	9.805205	0.120904	-1.456047	-0.019980	0.010420	0.100749	1.000000	0.000208	-0.000008	0.000034
51084	NaN	9.771161	0.140899	-1.419221	0.009420	0.035117	0.061942	1.000000	0.000191	0.000011	0.000061
51085	NaN	9.756932	0.147676	-1.437144	0.012311	0.014077	0.050606	1.000000	0.000211	0.000004	0.000032
51086	NaN	9.776771	0.133089	-1.491827	-0.015249	-0.031090	0.078081	1.000000	0.000196	0.000018	0.000041
51087	NaN	9.776785	0.131792	-1.491846	-0.015430	-0.031058	0.078081	1.000000	0.000215	-0.000014	0.000029
51088	NaN	9.758480	0.101893	-1.556887	-0.061625	-0.087034	0.069156	1.000000	0.000222	-0.000002	0.000018
51089	NaN	9.733489	0.168222	-1.506333	0.015977	-0.060602	0.037908	1.000000	0.000187	0.000001	0.000041
51090	NaN	9.767542	0.145360	-1.543253	-0.014280	-0.084262	0.076718	1.000000	0.000179	-0.000008	0.000030
51091	NaN	9.762984	0.121271	-1.550410	-0.038239	-0.084776	0.072943	1.000000	0.000140	-0.000014	0.000033
51092	NaN	9.758405	0.097454	-1.557643	-0.062735	-0.085232	0.069165	1.000000	0.000179	-0.000018	0.000002
51093	NaN	9.820306	0.135737	-1.555864	-0.023205	-0.084783	0.130643	1.000000	0.000179	0.000011	0.000024
51094	NaN	9.777084	0.173407	-1.569889	0.008587	-0.114749	0.090482	1.000000	0.000126	0.000018	0.000036
51095	NaN	9.771674	0.177509	-1.496415	0.032821	-0.047512	0.074327	1.000000	0.000107	0.000051	0.000047
51096	NaN	9.815625	0.123187	-1.520927	-0.024178	-0.050522	0.120678	1.000000	0.000111	0.000060	0.000067
51097	NaN	9.748246	0.150731	-1.486026	0.011507	-0.036066	0.049252	1.000000	0.000110	0.000072	0.000073
51098	NaN	9.734323	0.094238	-1.465489	-0.036722	-0.004285	0.031713	1.000000	0.000125	0.000058	0.000064
51099	NaN	9.762978	0.076600	-1.428354	-0.041752	0.039126	0.054355	1.000000	0.000129	0.000049	0.000027
51100	NaN	9.748825	0.083913	-1.445843	-0.039603	0.018120	0.043032	1.000000	0.000137	0.000012	0.000023
51101	NaN	9.743807	0.074474	-1.412605	-0.039050	0.051592	0.033053	1.000000	0.000090	0.000015	0.000009
51102	NaN	9.744323	0.059989	-1.452428	-0.063977	0.018192	0.039244	1.000000	0.000118	-0.000013	-0.000010
51103	NaN	9.787437	0.084190	-1.475703	-0.045652	-0.003678	0.085626	1.000000	0.000100	-0.000009	-0.000020
51104	NaN	9.787952	0.070126	-1.515504	-0.070626	-0.037043	0.091822	1.000000	0.000087	0.000012	-0.000023
51105	NaN	9.806773	0.085004	-1.490397	-0.049307	-0.014315	0.106923	1.000000	0.000078	0.000012	-0.000007
51106	NaN	9.768226	0.083612	-1.460164	-0.043748	0.009272	0.064322	1.000000	0.000064	0.000026	0.000003
51107	NaN	9.773405	0.092082	-1.492403	-0.044814	-0.023368	0.074306	1.000000	0.000072	0.000054	0.000008
51108	NaN	9.768503	0.082803	-1.458356	-0.044666	0.010154	0.064317	1.000000	0.000031	0.000053	0.000029
51109	NaN	9.768598	0.082425	-1.457738	-0.044926	0.010396	0.064315	1.000000	0.000045	0.000011	-0.000002
51110	NaN	9.762975	0.150809	-1.422038	0.030007	0.024613	0.054384	1.000000	0.000026	0.000027	-0.000006
51111	NaN	9.758458	0.190821	-1.465589	0.055896	-0.028935	0.056857	1.000000	-0.000034	0.000048	-0.000002
51112	NaN	9.684209	-0.071185	-1.491899	-0.206051	0.008379	-0.016147	1.000000	-0.000013	0.000011	-0.000031
51113	NaN	9.893904	0.069893	-1.494204	-0.065940	-0.002307	0.193436	1.000000	0.000048	0.000023	-0.000004
51114	NaN	9.759241	0.177174	-1.503687	0.030039	-0.061162	0.063071	1.000000	0.000040	0.000060	0.000000
51115	NaN	9.769145	0.145727	-1.491057	0.002759	-0.040109	0.070585	1.000000	0.000028	0.000079	0.000019
51116	NaN	9.812587	0.106578	-1.475264	-0.029517	-0.008811	0.110703	1.000000	-0.000001	0.000059	0.000022
51117	NaN	9.759947	0.112919	-1.462120	-0.021571	-0.006807	0.056790	1.000000	0.000026	0.000083	0.000037
51118	NaN	9.789135	0.144819	-1.501712	-0.001576	-0.050247	0.091895	1.000000	0.000030	0.000074	0.000001
51119	NaN	9.755833	0.152082	-1.503379	0.003421	-0.059834	0.059291	1.000000	0.000048	0.000082	0.000017
51120	NaN	9.741868	0.159755	-1.519900	0.005381	-0.080873	0.047994	1.000000	0.000015	0.000081	0.000022
51121	NaN	9.760860	0.174091	-1.493502	0.027373	-0.058539	0.063095	1.000000	0.000018	0.000074	0.000026
51122	NaN	9.766808	0.168032	-1.564764	0.001382	-0.124742	0.079314	1.000000	0.000021	0.000086	0.000024
51123	NaN	9.776785	0.136539	-1.551557	-0.025215	-0.103420	0.086816	1.000000	0.000036	0.000110	0.000002
51124	NaN	9.811277	0.177062	-1.623487	-0.006135	-0.179944	0.131949	1.000000	0.000021	0.000114	0.000045
51125	NaN	9.782714	0.206612	-1.617403	0.023174	-0.189059	0.103154	1.000000	0.000029	0.000143	0.000050
51126	NaN	9.782600	0.219745	-1.574709	0.047723	-0.154999	0.096952	1.000000	0.000028	0.000154	0.000056
51127	NaN	9.774096	0.172438	-1.584927	-0.000992	-0.155671	0.089355	1.000000	0.000016	0.000192	0.000069
51128	NaN	9.774091	0.185223	-1.541358	0.023595	-0.121639	0.083150	1.000000	0.000032	0.000195	0.000076
51129	NaN	9.731445	0.159538	-1.514723	0.005306	-0.098836	0.036732	1.000000	0.000052	0.000186	0.000068
51130	NaN	9.722382	0.189304	-1.522647	0.031270	-0.119388	0.029252	1.000000	0.000061	0.000167	0.000058
51131	NaN	9.789951	0.172974	-1.512822	0.020403	-0.099113	0.094454	1.000000	0.000069	0.000168	0.000041
51132	NaN	9.776288	0.180168	-1.527969	0.022237	-0.120171	0.083171	1.000000	0.000080	0.000142	0.000034
51133	NaN	9.767877	0.196061	-1.576121	0.022900	-0.174347	0.081911	1.000000	0.000102	0.000169	0.000036
51134	NaN	9.778037	0.163674	-1.561373	-0.003791	-0.152800	0.089399	1.000000	0.000093	0.000180	0.000059
51135	NaN	9.788218	0.131035	-1.546396	-0.030544	-0.131371	0.096880	1.000000	0.000105	0.000190	0.000062
51136	NaN	9.802190	0.135711	-1.484789	-0.008002	-0.075894	0.101954	1.000000	0.000099	0.000185	0.000060
51137	NaN	9.793182	0.165481	-1.492616	0.018102	-0.096878	0.094481	1.000000	0.000083	0.000182	0.000053
51138	NaN	9.807857	0.156081	-1.470789	0.015580	-0.074858	0.105770	1.000000	0.000067	0.000191	0.000052
51139	NaN	9.759758	0.122100	-1.411204	-0.001657	-0.018749	0.049307	1.000000	0.000040	0.000195	0.000058
51140	NaN	9.789269	0.090200	-1.410880	-0.031458	-0.008581	0.078088	1.000000	0.000037	0.000183	0.000061
51141	NaN	9.823321	0.081280	-1.403705	-0.037040	0.001685	0.110681	1.000000	0.000046	0.000200	0.000060
51142	NaN	9.792908	0.076526	-1.279332	-0.006777	0.113035	0.063080	1.000000	0.000021	0.000192	0.000060
51143	NaN	9.774792	0.060563	-1.300684	-0.028930	0.091672	0.047980	1.000000	0.000026	0.000181	0.000046
51144	NaN	9.800096	0.068618	-1.344896	-0.033663	0.047668	0.079326	1.000000	0.000050	0.000181	0.000058
51145	NaN	9.770789	0.112322	-1.298219	0.020745	0.071529	0.044328	1.000000	0.000043	0.000188	0.000062
51146	NaN	9.747298	0.087555	-1.286578	-0.000503	0.083162	0.019192	1.000000	0.000048	0.000188	0.000054
51147	NaN	9.761810	0.078287	-1.264761	-0.002870	0.105103	0.030464	1.000000	0.000035	0.000179	0.000051
51148	NaN	9.710209	0.069950	-1.289915	-0.020034	0.073630	-0.017224	1.000000	0.000052	0.000170	0.000052
51149	NaN	9.740061	0.101199	-1.327909	-0.000976	0.029870	0.017953	1.000000	0.000026	0.000133	0.000030
51150	NaN	9.726406	0.108990	-1.343574	0.000674	0.008780	0.006680	1.000000	0.000042	0.000134	-0.000003
51151	NaN	9.741645	0.086541	-1.362872	-0.027142	-0.002433	0.024173	1.000000	0.000002	0.000092	-0.000010
51152	NaN	9.760416	0.101667	-1.336167	-0.005405	0.019846	0.039265	1.000000	0.000016	0.000079	-0.000019
51153	NaN	9.761567	0.087749	-1.374371	-0.031025	-0.013167	0.045489	1.000000	0.000011	0.000081	-0.000032
51154	NaN	9.774783	0.094690	-1.315127	-0.007981	0.042103	0.050531	1.000000	-0.000023	0.000044	-0.000037
51155	NaN	9.741405	0.103282	-1.317853	-0.003040	0.032641	0.017943	1.000000	-0.000034	0.000041	-0.000053
51156	NaN	9.751883	0.059128	-1.345680	-0.054922	0.021287	0.031606	1.000000	-0.000047	0.000003	-0.000077
51157	NaN	9.736408	0.020503	-1.286381	-0.076348	0.087465	0.007667	1.000000	-0.000050	0.000010	-0.000081
51158	NaN	9.745407	0.068437	-1.273036	-0.028492	0.088276	0.015317	1.000000	-0.000073	-0.000033	-0.000099
51159	NaN	9.759779	-0.014676	-1.257537	-0.105028	0.131279	0.026349	1.000000	-0.000088	-0.000036	-0.000106
51160	NaN	9.759649	-0.012159	-1.258575	-0.105393	0.131755	0.026339	1.000000	-0.000094	-0.000070	-0.000129
51161	NaN	9.797462	0.006116	-1.249657	-0.086838	0.142319	0.062744	1.000000	-0.000083	-0.000076	-0.000142
51162	NaN	9.801754	0.032157	-1.244451	-0.063093	0.142919	0.066567	1.000000	-0.000095	-0.000086	-0.000145
51163	NaN	9.850433	0.067869	-1.301574	-0.047585	0.087799	0.123094	1.000000	-0.000094	-0.000070	-0.000129
51164	NaN	9.825350	0.061085	-1.255055	-0.043185	0.132689	0.091702	1.000000	-0.000082	-0.000050	-0.000098
51165	NaN	9.810270	0.085719	-1.234159	-0.015608	0.144456	0.074212	1.000000	-0.000105	-0.000016	-0.000101
51166	NaN	9.794864	0.047390	-1.175350	-0.037110	0.210835	0.050235	1.000000	-0.000100	-0.000018	-0.000087
51167	NaN	9.761256	0.057185	-1.179641	-0.031792	0.200897	0.017652	1.000000	-0.000073	-0.000062	-0.000121
51168	NaN	9.781487	0.046334	-1.235557	-0.061151	0.156917	0.045196	1.000000	-0.000072	-0.000083	-0.000155
51169	NaN	9.737858	0.025497	-1.214705	-0.078845	0.179988	-0.001295	1.000000	-0.000073	-0.000100	-0.000171
51170	NaN	9.811237	0.071540	-1.320013	-0.068273	0.080331	0.086646	1.000000	-0.000086	-0.000107	-0.000196
51171	NaN	9.811900	0.061298	-1.361674	-0.094093	0.047417	0.092877	1.000000	-0.000117	-0.000085	-0.000188
51172	NaN	9.817053	0.073674	-1.396149	-0.096027	0.014907	0.102944	1.000000	-0.000148	-0.000071	-0.000145
51173	NaN	9.837232	0.063220	-1.452024	-0.125847	-0.028953	0.130493	1.000000	-0.000146	-0.000067	-0.000135
51174	NaN	9.831888	0.120203	-1.457313	-0.076188	-0.050027	0.126927	1.000000	-0.000110	-0.000013	-0.000115
51175	NaN	9.826630	0.176611	-1.461873	-0.026496	-0.071312	0.123365	1.000000	-0.000131	0.000005	-0.000079
51176	NaN	9.786802	0.191349	-1.392222	0.005660	-0.015077	0.074482	1.000000	-0.000120	0.000027	-0.000070
51177	NaN	9.796651	0.224758	-1.417691	0.028108	-0.047900	0.088406	1.000000	-0.000085	0.000033	-0.000065
51178	NaN	9.754476	0.250768	-1.471668	0.033057	-0.112217	0.054673	1.000000	-0.000067	0.000031	-0.000076
51179	NaN	9.743874	0.297807	-1.442736	0.084007	-0.100483	0.041048	1.000000	-0.000030	0.000013	-0.000083
51180	NaN	9.749187	0.308393	-1.475711	0.081983	-0.132992	0.051139	1.000000	-0.000058	-0.000019	-0.000086
51181	NaN	9.730606	0.295539	-1.501002	0.058993	-0.154332	0.036056	1.000000	-0.000014	-0.000005	-0.000110
51182	NaN	9.774795	0.307765	-1.563543	0.050089	-0.209593	0.088806	1.000000	-0.000009	-0.000007	-0.000096
51183	NaN	9.744573	0.354333	-1.520638	0.104791	-0.186664	0.053860	1.000000	-0.000005	-0.000026	-0.000098
51184	NaN	9.779912	0.320556	-1.597230	0.047630	-0.241786	0.098914	1.000000	-0.000017	-0.000017	-0.000108
51185	NaN	9.716100	0.311618	-1.520314	0.058857	-0.174022	0.024858	1.000000	-0.000032	-0.000011	-0.000086
51186	NaN	9.760200	0.260828	-1.545738	0.001653	-0.174558	0.071055	1.000000	-0.000040	-0.000032	-0.000104
51187	NaN	9.743971	0.299278	-1.485148	0.054929	-0.130002	0.047348	1.000000	-0.000008	-0.000057	-0.000090
51188	NaN	9.767630	0.324936	-1.493682	0.075224	-0.140971	0.072541	1.000000	-0.000011	-0.000012	-0.000106
51189	NaN	9.776227	0.310190	-1.443110	0.075096	-0.086286	0.073683	1.000000	-0.000045	-0.000049	-0.000111
51190	NaN	9.791127	0.289821	-1.465524	0.047158	-0.097061	0.091164	1.000000	-0.000010	-0.000033	-0.000078
51191	NaN	9.771514	0.290870	-1.451562	0.050394	-0.085446	0.069837	1.000000	-0.000020	-0.000048	-0.000099
51192	NaN	9.814653	0.254179	-1.437537	0.019099	-0.052963	0.109780	1.000000	0.000000	-0.000028	-0.000085
51193	NaN	9.789751	0.246160	-1.390487	0.024149	-0.008529	0.078350	1.000000	-0.000020	-0.000038	-0.000071
51194	NaN	9.765826	0.223893	-1.383289	0.003172	0.003458	0.053161	1.000000	-0.000023	-0.000031	-0.000075
51195	NaN	9.779801	0.217311	-1.365859	0.001378	0.025271	0.064390	1.000000	0.000000	-0.000047	-0.000078
51196	NaN	9.783982	0.241728	-1.359949	0.025124	0.025544	0.068249	1.000000	-0.000014	-0.000052	-0.000063
51197	NaN	9.774193	0.211214	-1.334600	0.002934	0.059053	0.054284	1.000000	-0.000011	-0.000022	-0.000072
51198	NaN	9.774074	0.212606	-1.335249	0.002575	0.059526	0.054281	1.000000	-0.000017	-0.000045	-0.000067
51199	NaN	9.778282	0.236779	-1.329151	0.026496	0.059653	0.058140	1.000000	0.000020	-0.000035	-0.000052
51200	NaN	9.806405	0.221606	-1.293605	0.022964	0.103371	0.080588	1.000000	0.000001	-0.000050	-0.000056
51201	NaN	9.830985	0.232284	-1.342241	0.017203	0.059551	0.112029	1.000000	0.000040	-0.000043	-0.000059
51202	NaN	9.802755	0.186651	-1.342009	-0.027833	0.071846	0.082963	1.000000	0.000028	-0.000034	-0.000068
51203	NaN	9.773405	0.218058	-1.339259	0.001057	0.061938	0.054266	1.000000	0.000029	-0.000037	-0.000046
51204	NaN	9.798027	0.228678	-1.387477	-0.004807	0.018131	0.085714	1.000000	0.000044	-0.000013	-0.000068
51205	NaN	9.788358	0.197639	-1.361658	-0.027219	0.051625	0.071731	1.000000	0.000056	-0.000012	-0.000030
51206	NaN	9.755695	0.191247	-1.405211	-0.048552	0.009107	0.045423	1.000000	0.000017	-0.000018	-0.000027
51207	NaN	9.811988	0.222402	-1.370279	-0.007585	0.040926	0.096929	1.000000	0.000043	-0.000022	-0.000033
51208	NaN	9.765160	0.224061	-1.432132	-0.027404	-0.023206	0.059408	1.000000	0.000026	-0.000020	-0.000022
51209	NaN	9.768473	0.261666	-1.385759	0.022326	0.009633	0.057028	1.000000	0.000042	-0.000010	-0.000027
51210	NaN	9.797674	0.231751	-1.389456	-0.007240	0.020717	0.085708	1.000000	0.000023	-0.000013	-0.000026
51211	NaN	9.769335	0.248187	-1.426096	-0.004454	-0.022316	0.063280	1.000000	0.000047	-0.000012	-0.000014
51212	NaN	9.763080	0.253854	-1.353442	0.023430	0.043721	0.046903	1.000000	0.000078	0.000003	-0.000034
51213	NaN	9.782237	0.317597	-1.405870	0.067053	-0.022651	0.074905	1.000000	0.000084	-0.000021	0.000008
51214	NaN	9.787482	0.326085	-1.439105	0.064577	-0.055119	0.085037	1.000000	0.000051	-0.000003	0.000006
51215	NaN	9.792792	0.334435	-1.471926	0.062197	-0.087870	0.095168	1.000000	0.000078	0.000022	0.000022
51216	NaN	9.773434	0.332934	-1.456895	0.065445	-0.076098	0.073835	1.000000	0.000071	0.000010	0.000033
51217	NaN	9.788601	0.309815	-1.478253	0.037345	-0.086936	0.091300	1.000000	0.000074	0.000022	0.000030
51218	NaN	9.725887	0.346629	-1.477791	0.071217	-0.107560	0.030089	1.000000	0.000053	0.000030	0.000038
51219	NaN	9.769184	0.370156	-1.499920	0.087634	-0.130254	0.076655	1.000000	0.000036	0.000032	0.000049
51220	NaN	9.718189	0.347466	-1.567840	0.043365	-0.193880	0.035286	1.000000	0.000027	0.000006	0.000022
51221	NaN	9.704118	0.354846	-1.585763	0.044412	-0.215251	0.024088	1.000000	0.000014	0.000024	0.000041
51222	NaN	9.713970	0.323081	-1.574284	0.018539	-0.192700	0.031422	1.000000	0.000017	-0.000011	0.000023
51223	NaN	9.719188	0.331351	-1.607779	0.015885	-0.225595	0.041561	1.000000	0.000051	-0.000041	0.000019
51224	NaN	9.703972	0.353286	-1.587002	0.043283	-0.214318	0.024114	1.000000	0.000027	-0.000042	0.000007
51225	NaN	9.723252	0.353706	-1.602716	0.038974	-0.224902	0.045474	1.000000	0.000019	-0.000054	0.000017
51226	NaN	9.732888	0.322186	-1.592498	0.013124	-0.202320	0.052800	1.000000	0.000003	-0.000064	0.000023
51227	NaN	9.736294	0.296203	-1.509625	0.015565	-0.114172	0.043724	1.000000	-0.000013	-0.000067	0.000016
51228	NaN	9.750462	0.224584	-1.455221	-0.033475	-0.036534	0.048203	1.000000	-0.000067	-0.000069	0.000063
51229	NaN	9.733582	0.180191	-1.561508	-0.109218	-0.122206	0.045635	1.000000	-0.000101	-0.000105	0.000058
51230	NaN	9.762789	0.085774	-1.528868	-0.185991	-0.055329	0.067555	1.000000	-0.000053	-0.000042	0.000082
51231	NaN	9.664128	-0.048405	-1.544783	-0.318484	-0.039684	-0.031018	1.000000	-0.000025	-0.000069	0.000126
51232	NaN	9.664964	-0.127824	-1.548522	-0.392480	-0.016034	-0.031507	1.000000	-0.000013	-0.000076	0.000113
51233	NaN	9.733341	-0.016135	-1.454577	-0.252237	0.046511	0.025411	1.000000	0.000072	-0.000090	0.000109
51234	NaN	9.674804	-0.020377	-1.412328	-0.241532	0.080771	-0.038638	1.000000	0.000082	-0.000132	0.000086
51235	NaN	9.720227	0.054169	-1.351450	-0.148025	0.122483	-0.000692	1.000000	0.000105	-0.000155	0.000032
51236	NaN	9.703843	0.090159	-1.293816	-0.094118	0.166063	-0.024418	1.000000	0.000095	-0.000235	0.000002
51237	NaN	9.744729	0.143223	-1.241657	-0.024741	0.208264	0.009634	1.000000	0.000096	-0.000237	-0.000039
51238	NaN	9.800603	0.174823	-1.211518	0.016754	0.239714	0.061137	1.000000	0.000089	-0.000268	-0.000084
51239	NaN	9.823391	0.263173	-1.262544	0.083805	0.172763	0.093140	1.000000	0.000083	-0.000283	-0.000114
51240	NaN	9.879986	0.281605	-1.272496	0.098809	0.171848	0.150915	1.000000	0.000052	-0.000241	-0.000112
51241	NaN	9.921693	0.322310	-1.260065	0.142454	0.180975	0.191241	1.000000	0.000040	-0.000204	-0.000100
51242	NaN	9.892729	0.340099	-1.299894	0.144661	0.138123	0.168870	1.000000	0.000046	-0.000152	-0.000083
51243	NaN	9.916038	0.365166	-1.310787	0.165020	0.126409	0.194116	1.000000	0.000040	-0.000128	-0.000062
51244	NaN	9.877788	0.350429	-1.322761	0.145571	0.117068	0.157684	1.000000	0.000049	-0.000064	-0.000048
51245	NaN	9.874315	0.362247	-1.447747	0.114803	-0.002576	0.173108	1.000000	0.000063	-0.000038	-0.000029
51246	NaN	9.808140	0.299851	-1.457293	0.050918	0.000609	0.107526	1.000000	0.000086	-0.000044	-0.000004
51247	NaN	9.798891	0.316491	-1.509143	0.049231	-0.053849	0.106517	1.000000	0.000106	-0.000022	-0.000012
51248	NaN	9.771073	0.318063	-1.585546	0.024636	-0.128941	0.090431	1.000000	0.000125	-0.000007	-0.000008
51249	NaN	9.747318	0.294054	-1.577730	0.003841	-0.116717	0.065181	1.000000	0.000108	-0.000017	-0.000003
51250	NaN	9.738805	0.296271	-1.669173	-0.024602	-0.203009	0.070451	1.000000	0.000113	-0.000029	-0.000017
51251	NaN	9.720398	0.329466	-1.772073	-0.027818	-0.311838	0.068452	1.000000	0.000111	-0.000024	0.000001
51252	NaN	9.710133	0.311748	-1.706567	-0.022945	-0.245586	0.048114	1.000000	0.000082	-0.000025	-0.000002
51253	NaN	9.728977	0.375040	-1.759618	0.019321	-0.312353	0.076295	1.000000	0.000079	-0.000018	-0.000006
51254	NaN	9.738062	0.358235	-1.708914	0.020457	-0.257318	0.077305	1.000000	0.000040	-0.000024	-0.000003
51255	NaN	9.733201	0.397574	-1.753829	0.042240	-0.312666	0.080221	1.000000	0.000043	-0.000022	0.000029
51256	NaN	9.766044	0.403941	-1.711169	0.063749	-0.269618	0.106492	1.000000	0.000013	-0.000011	0.000031
51257	NaN	9.760985	0.394440	-1.678185	0.065518	-0.236358	0.096327	1.000000	0.000001	0.000007	0.000050
51258	NaN	9.741028	0.406973	-1.623324	0.095847	-0.192624	0.068717	1.000000	-0.000015	0.000014	0.000072
51259	NaN	9.736750	0.382693	-1.629732	0.070883	-0.191793	0.064811	1.000000	-0.000000	0.000019	0.000056
51260	NaN	9.750374	0.387956	-1.571602	0.096390	-0.137624	0.069721	1.000000	0.000010	0.000005	0.000056
51261	NaN	9.736917	0.380602	-1.629224	0.070025	-0.191018	0.064832	1.000000	0.000014	0.000024	0.000041
51262	NaN	9.746153	0.363275	-1.577688	0.071484	-0.135994	0.065823	1.000000	0.000010	0.000015	0.000021
51263	NaN	9.761182	0.340180	-1.598961	0.043074	-0.146197	0.083264	1.000000	-0.000009	0.000021	0.000051
51264	NaN	9.766739	0.285239	-1.593846	-0.006442	-0.122227	0.086601	1.000000	-0.000015	0.000023	0.000037
51265	NaN	9.776692	0.253453	-1.581905	-0.032081	-0.099199	0.093851	1.000000	0.000011	0.000031	0.000037
51266	NaN	9.771720	0.243911	-1.548206	-0.029503	-0.065867	0.083662	1.000000	-0.000000	0.000038	0.000050
51267	NaN	9.738305	0.250232	-1.550612	-0.025134	-0.075781	0.051147	1.000000	-0.000001	0.000050	0.000056
51268	NaN	9.772052	0.241599	-1.546473	-0.030367	-0.064778	0.083667	1.000000	0.000007	0.000040	0.000074
51269	NaN	9.781049	0.286356	-1.531990	0.017473	-0.066194	0.091515	1.000000	-0.000016	0.000063	0.000065
51270	NaN	9.791109	0.253897	-1.519309	-0.007903	-0.043060	0.098754	1.000000	-0.000037	0.000065	0.000085
51271	NaN	9.781819	0.220752	-1.491686	-0.029454	-0.008550	0.084631	1.000000	-0.000023	0.000070	0.000070
51272	NaN	9.758290	0.195862	-1.482218	-0.049946	0.004053	0.059346	1.000000	-0.000025	0.000065	0.000060
51273	NaN	9.748715	0.225809	-1.492274	-0.025091	-0.018175	0.052116	1.000000	0.000001	0.000073	0.000060
51274	NaN	9.787165	0.177628	-1.443215	-0.052336	0.048365	0.081651	1.000000	-0.000007	0.000064	0.000048
51275	NaN	9.740320	0.177417	-1.503265	-0.073951	-0.015298	0.044260	1.000000	0.000026	0.000055	0.000078
51276	NaN	9.744184	0.213559	-1.455718	-0.023135	0.016048	0.041908	1.000000	0.000023	0.000053	0.000046
51277	NaN	9.777957	0.204867	-1.451195	-0.028390	0.027032	0.074418	1.000000	-0.000011	0.000073	0.000085
51278	NaN	9.778175	0.203331	-1.449943	-0.028737	0.027507	0.074416	1.000000	0.000030	0.000055	0.000070
51279	NaN	9.768588	0.232911	-1.460338	-0.004242	0.005215	0.067196	1.000000	0.000052	0.000052	0.000072
51280	NaN	9.772426	0.268863	-1.413021	0.046626	0.036476	0.064849	1.000000	0.000047	0.000035	0.000064
51281	NaN	9.787522	0.244965	-1.433791	0.018438	0.026811	0.082276	1.000000	0.000052	0.000052	0.000072
51282	NaN	9.777941	0.274591	-1.444290	0.043041	0.004535	0.075064	1.000000	0.000050	0.000047	0.000062
51283	NaN	9.774428	0.235792	-1.489887	-0.008610	-0.025665	0.077412	1.000000	0.000050	0.000047	0.000062
51284	NaN	9.769393	0.225899	-1.456046	-0.005840	0.007642	0.067194	1.000000	0.000029	0.000039	0.000054
51285	NaN	9.770330	0.210303	-1.494771	-0.033378	-0.023789	0.073476	1.000000	0.000037	0.000068	0.000059
51286	NaN	9.789922	0.209389	-1.508405	-0.037728	-0.034432	0.094839	1.000000	0.000008	0.000057	0.000089
51287	NaN	9.780501	0.176092	-1.480859	-0.059193	-0.000029	0.080676	1.000000	0.000006	0.000071	0.000073
51288	NaN	9.766583	0.182499	-1.497583	-0.058729	-0.021261	0.069535	1.000000	-0.000009	0.000078	0.000095
51289	NaN	9.810067	0.204893	-1.518976	-0.043223	-0.043998	0.116204	1.000000	-0.000023	0.000080	0.000098
51290	NaN	9.752201	0.201270	-1.472883	-0.031498	-0.010196	0.052109	1.000000	-0.000003	0.000083	0.000096
51291	NaN	9.767373	0.239669	-1.530774	-0.014225	-0.076508	0.076510	1.000000	0.000010	0.000062	0.000099
51292	NaN	9.753498	0.246067	-1.547461	-0.013784	-0.097745	0.065378	1.000000	-0.000007	0.000092	0.000070
51293	NaN	9.772373	0.259502	-1.521100	0.009242	-0.076530	0.080463	1.000000	0.000021	0.000055	0.000086
51294	NaN	9.754038	0.305615	-1.582543	0.031286	-0.153448	0.072381	1.000000	0.000002	0.000071	0.000082
51295	NaN	9.749027	0.232551	-1.510261	-0.011645	-0.063305	0.055157	1.000000	-0.000012	0.000085	0.000091
51296	NaN	9.745642	0.193465	-1.555107	-0.063385	-0.093316	0.057500	1.000000	0.000005	0.000083	0.000079
51297	NaN	9.735448	0.237429	-1.525391	-0.011728	-0.084062	0.044032	1.000000	0.000009	0.000064	0.000077
51298	NaN	9.735669	0.235933	-1.524211	-0.012073	-0.083587	0.044036	1.000000	0.000016	0.000057	0.000073
51299	NaN	9.745621	0.266180	-1.549469	0.008063	-0.116702	0.058237	1.000000	0.000004	0.000048	0.000070
51300	NaN	9.750974	0.210713	-1.543740	-0.041177	-0.092157	0.061463	1.000000	0.000001	0.000055	0.000066
51301	NaN	9.755627	0.232466	-1.536102	-0.017492	-0.093059	0.065417	1.000000	-0.000008	0.000038	0.000067
51302	NaN	9.750532	0.222556	-1.502027	-0.014509	-0.059780	0.055175	1.000000	0.000010	0.000071	0.000065
51303	NaN	9.803681	0.214075	-1.512230	-0.023787	-0.059573	0.109042	1.000000	0.000015	0.000050	0.000085
51304	NaN	9.784644	0.274773	-1.534109	0.025456	-0.104962	0.094713	1.000000	0.000007	0.000060	0.000067
51305	NaN	9.803508	0.288042	-1.507762	0.048464	-0.083983	0.109796	1.000000	0.000026	0.000084	0.000100
51306	NaN	9.794015	0.254472	-1.479769	0.027436	-0.049469	0.095592	1.000000	0.000013	0.000093	0.000090
51307	NaN	9.770665	0.291801	-1.507544	0.052328	-0.093551	0.077320	1.000000	0.000045	0.000106	0.000092
51308	NaN	9.799207	0.273665	-1.469123	0.050589	-0.049624	0.099560	1.000000	0.000016	0.000098	0.000100
51309	NaN	9.771426	0.287487	-1.503439	0.051304	-0.092507	0.077335	1.000000	0.000034	0.000122	0.000133
51310	NaN	9.766499	0.276519	-1.468114	0.054387	-0.059241	0.067082	1.000000	0.000012	0.000117	0.000102
51311	NaN	9.782709	0.237279	-1.526855	-0.001800	-0.100082	0.090795	1.000000	0.000034	0.000141	0.000126
51312	NaN	9.753852	0.202621	-1.483175	-0.018633	-0.054469	0.055199	1.000000	0.000022	0.000131	0.000123
51313	NaN	9.803100	0.232651	-1.536312	-0.006810	-0.110003	0.112181	1.000000	0.000030	0.000141	0.000135
51314	NaN	9.779626	0.206388	-1.525520	-0.027083	-0.097161	0.086844	1.000000	0.000050	0.000144	0.000133
51315	NaN	9.790079	0.235194	-1.548874	-0.007138	-0.130612	0.101084	1.000000	0.000049	0.000156	0.000139
51316	NaN	9.803784	0.238344	-1.487826	0.019434	-0.076947	0.105897	1.000000	0.000052	0.000158	0.000171
51317	NaN	9.780875	0.274296	-1.514195	0.044003	-0.120910	0.087666	1.000000	0.000037	0.000193	0.000151
51318	NaN	9.786455	0.216825	-1.505743	-0.005077	-0.096033	0.090834	1.000000	0.000021	0.000181	0.000179
51319	NaN	9.763030	0.190070	-1.494336	-0.025293	-0.083178	0.065488	1.000000	0.000034	0.000170	0.000148
51320	NaN	9.758107	0.178604	-1.458061	-0.022101	-0.049926	0.055216	1.000000	0.000052	0.000168	0.000136
51321	NaN	9.768677	0.207367	-1.481201	-0.002100	-0.083409	0.069470	1.000000	0.000062	0.000154	0.000136
51322	NaN	9.770158	0.190132	-1.517757	-0.030037	-0.114346	0.075778	1.000000	0.000062	0.000173	0.000129
51323	NaN	9.775311	0.210189	-1.507624	-0.006551	-0.114985	0.079761	1.000000	0.000056	0.000178	0.000156
51324	NaN	9.774958	0.221492	-1.464384	0.020710	-0.083098	0.073461	1.000000	0.000053	0.000185	0.000152
51325	NaN	9.789528	0.210286	-1.442417	0.019748	-0.060744	0.084563	1.000000	0.000050	0.000192	0.000148
51326	NaN	9.764266	0.135677	-1.353310	-0.017984	0.040773	0.045748	1.000000	0.000065	0.000178	0.000139
51327	NaN	9.750798	0.141014	-1.368522	-0.017574	0.019457	0.034653	1.000000	0.000063	0.000142	0.000129
51328	NaN	9.770732	0.138959	-1.380470	-0.022095	0.008919	0.056033	1.000000	0.000070	0.000138	0.000103
51329	NaN	9.737699	0.144631	-1.381428	-0.017592	-0.001195	0.023559	1.000000	0.000084	0.000143	0.000088
51330	NaN	9.747398	0.111693	-1.367358	-0.042534	0.022441	0.030665	1.000000	0.000060	0.000111	0.000076
51331	NaN	9.758076	0.064335	-1.393168	-0.095524	0.014975	0.044075	1.000000	0.000059	0.000123	0.000082
51332	NaN	9.748171	0.031093	-1.364743	-0.116277	0.049625	0.029789	1.000000	0.000024	0.000098	0.000083
51333	NaN	9.752027	0.066955	-1.316264	-0.064973	0.079971	0.027458	1.000000	0.000047	0.000113	0.000079
51334	NaN	9.781141	0.034457	-1.317270	-0.094095	0.092636	0.055933	1.000000	0.000027	0.000091	0.000087
51335	NaN	9.766433	0.055554	-1.294254	-0.066460	0.102865	0.038526	1.000000	0.000036	0.000080	0.000064
51336	NaN	9.772295	0.062796	-1.325742	-0.070489	0.070599	0.048820	1.000000	0.000001	0.000074	0.000059
51337	NaN	9.772488	0.061829	-1.324367	-0.071022	0.071265	0.048812	1.000000	0.000017	0.000067	0.000038
51338	NaN	9.806080	0.053254	-1.319462	-0.076090	0.082504	0.081271	1.000000	-0.000006	0.000052	0.000042
