// Start Time: Unknown
// Update Rate: 100.0Hz
// Filter Profile: human (46.1)
// Firmware Version: 4.3.5
PacketCounter	SampleTimeFine	Acc_X	Acc_Y	Acc_Z	FreeAcc_X	FreeAcc_Y	FreeAcc_Z	OriInc_q0	OriInc_q1	OriInc_q2	OriInc_q3
50181	NaN	9.780592	-0.483516	-1.023632	0.000000	-0.000000	0.033205	1.000000	0.000066	0.000028	0.000095
50182	NaN	9.788049	-0.694867	-1.008183	0.000000	0.000000	0.051651	1.000000	0.000093	0.000009	0.000093
50183	NaN	9.821086	-0.612203	-0.997601	0.013050	-0.028669	0.077851	1.000000	0.000064	0.000005	0.000078
50184	NaN	9.805597	-0.503609	-1.041254	-0.074185	0.051290	0.060480	1.000000	0.000061	0.000013	0.000071
50185	NaN	9.831826	-0.580468	-0.913188	-0.048732	-0.095930	0.077918	1.000000	0.000005	0.000027	0.000082
50186	NaN	9.792342	-0.643581	-0.917539	0.014205	-0.109405	0.042964	1.000000	-0.000019	0.000023	0.000081
50187	NaN	9.802096	-0.549652	-0.979552	-0.055361	-0.019004	0.053381	1.000000	0.000006	0.000019	0.000081
50188	NaN	9.833234	-0.540291	-0.881336	-0.101396	-0.109559	0.073610	1.000000	-0.000027	-0.000011	0.000089
50189	NaN	9.792232	-0.571424	-0.913865	-0.059212	-0.086137	0.038127	1.000000	-0.000057	-0.000009	0.000098
50190	NaN	9.809426	-0.609979	-0.957849	-0.011668	-0.058883	0.062068	1.000000	-0.000020	0.000006	0.000096
50191	NaN	9.836101	-0.581677	-0.945447	-0.046568	-0.061982	0.085549	1.000000	-0.000046	0.000000	0.000112
50192	NaN	9.835981	-0.583734	-0.945427	-0.046568	-0.061982	0.085549	1.000000	-0.000017	0.000006	0.000103
50193	NaN	9.816954	-0.593781	-0.932259	-0.041255	-0.075287	0.065920	1.000000	-0.000032	0.000013	0.000084
50194	NaN	9.811755	-0.681715	-0.902709	0.030284	-0.132024	0.063132	1.000000	-0.000046	0.000002	0.000088
50195	NaN	9.815119	-0.642001	-0.962914	0.011608	-0.061157	0.070229	1.000000	-0.000041	0.000019	0.000087
50196	NaN	9.810173	-0.652936	-0.929874	0.009645	-0.094774	0.062605	1.000000	-0.000058	-0.000001	0.000099
50197	NaN	9.789734	-0.630917	-0.944356	-0.005891	-0.070954	0.042447	1.000000	-0.000048	0.000000	0.000105
50198	NaN	9.780343	-0.622756	-0.997303	0.003166	-0.017298	0.038061	1.000000	-0.000038	-0.000006	0.000109
50199	NaN	9.819435	-0.640604	-0.996026	0.013893	-0.026251	0.077856	1.000000	-0.000044	-0.000000	0.000119
50200	NaN	9.780033	-0.627122	-0.997607	0.003325	-0.016614	0.038062	1.000000	-0.000034	-0.000014	0.000115
50201	NaN	9.804996	-0.644045	-1.016455	0.021119	-0.005498	0.065847	1.000000	-0.000034	-0.000014	0.000115
50202	NaN	9.784544	-0.622259	-1.031143	0.005420	0.017718	0.045680	1.000000	-0.000020	-0.000012	0.000111
50203	NaN	9.776463	-0.646403	-1.056778	0.035398	0.035251	0.041822	1.000000	-0.000035	-0.000007	0.000116
50204	NaN	9.802736	-0.695639	-1.048035	0.073887	0.008858	0.070145	1.000000	-0.000049	-0.000002	0.000129
50205	NaN	9.796396	-0.674812	-1.042714	0.051033	0.012620	0.061989	1.000000	-0.000032	-0.000013	0.000098
50206	NaN	9.771089	-0.662264	-1.024535	0.033371	0.002214	0.034207	1.000000	-0.000012	-0.000020	0.000132
50207	NaN	9.808316	-0.725508	-1.054322	0.096420	0.006800	0.078303	1.000000	-0.000032	0.000001	0.000132
50208	NaN	9.792734	-0.694884	-1.101710	0.082686	0.063632	0.065742	1.000000	-0.000021	-0.000006	0.000136
50209	NaN	9.793817	-0.729602	-1.074438	0.103036	0.027235	0.066292	1.000000	-0.000016	-0.000004	0.000127
50210	NaN	9.807725	-0.733004	-1.054640	0.095942	0.007201	0.078307	1.000000	0.000014	-0.000007	0.000117
50211	NaN	9.815534	-0.713225	-1.029150	0.065308	-0.009351	0.082170	1.000000	0.000014	0.000011	0.000102
50212	NaN	9.824669	-0.725264	-0.975921	0.056251	-0.063006	0.086576	1.000000	0.000012	0.000028	0.000080
50213	NaN	9.848453	-0.709428	-1.021312	0.052177	-0.015375	0.113815	1.000000	0.000028	0.000023	0.000074
50214	NaN	9.817828	-0.782409	-0.972836	0.106061	-0.082525	0.083284	1.000000	0.000056	0.000029	0.000066
50215	NaN	9.850884	-0.776386	-0.965131	0.092673	-0.088412	0.114939	1.000000	0.000077	0.000043	0.000036
50216	NaN	9.805600	-0.738591	-0.959998	0.059329	-0.075617	0.066972	1.000000	0.000074	0.000049	0.000054
50217	NaN	9.795224	-0.648906	-0.917134	-0.040198	-0.082179	0.046331	1.000000	0.000085	0.000034	0.000057
50218	NaN	9.790293	-0.659603	-0.883544	-0.042160	-0.115802	0.038728	1.000000	0.000079	0.000023	0.000082
50219	NaN	9.825109	-0.657829	-0.967325	-0.021628	-0.037118	0.081724	1.000000	0.000086	0.000024	0.000080
50220	NaN	9.818283	-0.713829	-0.964579	0.029084	-0.057061	0.078447	1.000000	0.000144	0.000033	0.000087
50221	NaN	9.814691	-0.570598	-0.923847	-0.120860	-0.043322	0.061053	1.000000	0.000059	0.000044	0.000082
50222	NaN	9.816498	-0.575973	-1.014304	-0.087058	0.040779	0.072400	1.000000	0.000140	0.000026	0.000072
50223	NaN	9.816941	-0.687034	-0.989643	0.006648	-0.018087	0.077882	1.000000	0.000088	0.000024	0.000088
50224	NaN	9.788303	-0.528940	-0.930825	-0.159950	-0.015908	0.032680	1.000000	0.000088	0.000024	0.000088
50225	NaN	9.772980	-0.497779	-0.977841	-0.173901	0.041936	0.020069	1.000000	0.000111	0.000003	0.000095
50226	NaN	9.787381	-0.610219	-0.933684	-0.086679	-0.038003	0.037592	1.000000	0.000098	0.000000	0.000107
50227	NaN	9.786062	-0.580591	-0.961206	-0.107271	-0.000292	0.037009	1.000000	0.000068	-0.000015	0.000132
50228	NaN	9.766856	-0.591692	-0.948475	-0.102128	-0.013893	0.017397	1.000000	0.000150	-0.000027	0.000154
50229	NaN	9.791667	-0.610053	-0.967401	-0.084000	-0.002560	0.045188	1.000000	0.000077	-0.000033	0.000176
50230	NaN	9.797449	-0.636636	-0.973351	-0.061216	-0.005729	0.053363	1.000000	0.000131	-0.000032	0.000168
50231	NaN	9.816171	-0.632288	-0.986792	-0.065684	0.008635	0.072977	1.000000	0.000120	-0.000027	0.000187
50232	NaN	9.790835	-0.621146	-0.968761	-0.083330	-0.001799	0.045194	1.000000	0.000126	-0.000033	0.000177
50233	NaN	9.836818	-0.695922	-0.945588	-0.028397	-0.050644	0.093778	1.000000	0.000107	-0.000020	0.000176
50234	NaN	9.801409	-0.751518	-0.983477	0.036512	-0.030543	0.066450	1.000000	0.000102	-0.000020	0.000161
50235	NaN	9.840257	-0.770924	-0.982037	0.047843	-0.039222	0.106262	1.000000	0.000092	0.000003	0.000166
50236	NaN	9.833040	-0.828183	-0.979481	0.098554	-0.059164	0.102994	1.000000	0.000081	0.000019	0.000138
50237	NaN	9.856823	-0.813971	-1.024835	0.095821	-0.011116	0.130174	1.000000	0.000069	0.000034	0.000135
50238	NaN	9.816533	-0.768613	-1.053023	0.064439	0.035263	0.089764	1.000000	0.000059	0.000040	0.000131
50239	NaN	9.803364	-0.802380	-1.044640	0.092629	0.019185	0.078323	1.000000	0.000038	0.000029	0.000136
50240	NaN	9.800093	-0.817913	-1.102209	0.124473	0.069670	0.082024	1.000000	0.000037	0.000038	0.000113
50241	NaN	9.766902	-0.827197	-1.108132	0.136511	0.076687	0.050378	1.000000	0.000035	0.000054	0.000115
50242	NaN	9.787991	-0.776306	-1.089428	0.078698	0.076616	0.065683	1.000000	0.000024	0.000045	0.000101
50243	NaN	9.794898	-0.833482	-1.066381	0.122041	0.036907	0.074457	1.000000	0.000042	0.000040	0.000103
50244	NaN	9.806775	-0.881488	-1.076191	0.167616	0.030577	0.090798	1.000000	-0.000006	0.000057	0.000087
50245	NaN	9.777916	-0.799944	-1.020558	0.073908	0.009934	0.050554	1.000000	0.000049	0.000051	0.000078
50246	NaN	9.791967	-0.802725	-0.999367	0.066810	-0.010079	0.062592	1.000000	0.000066	0.000069	0.000090
50247	NaN	9.793111	-0.727444	-0.995083	-0.007583	0.013208	0.057680	1.000000	0.000038	0.000040	0.000089
50248	NaN	9.788063	-0.738365	-0.961263	-0.009542	-0.020418	0.050115	1.000000	0.000017	0.000044	0.000103
50249	NaN	9.802047	-0.741381	-0.940541	-0.017208	-0.040249	0.062153	1.000000	0.000009	0.000035	0.000097
50250	NaN	9.835065	-0.736461	-0.933032	-0.029447	-0.046647	0.093795	1.000000	0.000005	0.000025	0.000106
50251	NaN	9.797161	-0.645312	-0.930715	-0.114153	-0.013689	0.049047	1.000000	-0.000005	0.000048	0.000111
50252	NaN	9.803005	-0.670740	-0.935408	-0.091366	-0.016849	0.057225	1.000000	0.000037	0.000021	0.000128
50253	NaN	9.816953	-0.674140	-0.914855	-0.098733	-0.036482	0.069262	1.000000	-0.000004	0.000040	0.000110
50254	NaN	9.835006	-0.636397	-0.954951	-0.124699	0.013939	0.088249	1.000000	0.000019	0.000011	0.000117
50255	NaN	9.812106	-0.578472	-0.905586	-0.195144	-0.009890	0.056150	1.000000	0.000033	0.000013	0.000112
50256	NaN	9.792910	-0.588911	-0.892304	-0.189999	-0.023496	0.036549	1.000000	0.000026	0.000010	0.000139
50257	NaN	9.835953	-0.566877	-0.950918	-0.197815	0.037734	0.083322	1.000000	0.000063	0.000024	0.000136
50258	NaN	9.804443	-0.640581	-0.902341	-0.143916	-0.029451	0.052914	1.000000	0.000066	0.000001	0.000133
50259	NaN	9.842427	-0.627573	-0.928281	-0.153514	-0.001983	0.092127	1.000000	0.000036	0.000003	0.000143
50260	NaN	9.817273	-0.615245	-0.909917	-0.171152	-0.012423	0.064350	1.000000	0.000045	-0.000011	0.000139
50261	NaN	9.803901	-0.649045	-0.902184	-0.142449	-0.029010	0.052937	1.000000	0.000082	0.000011	0.000137
50262	NaN	9.783780	-0.627892	-0.916784	-0.158131	-0.005819	0.032720	1.000000	0.000076	-0.000024	0.000153
50263	NaN	9.774113	-0.539779	-0.875818	-0.255161	-0.012973	0.012099	1.000000	0.000094	-0.000029	0.000155
50264	NaN	9.825409	-0.637575	-0.857980	-0.178204	-0.065656	0.068872	1.000000	0.000029	-0.000041	0.000174
50265	NaN	9.794648	-0.684163	-0.929418	-0.109772	-0.011641	0.049100	1.000000	0.000003	-0.000054	0.000190
50266	NaN	9.828259	-0.712958	-0.895773	-0.101169	-0.054825	0.081359	1.000000	0.000043	-0.000038	0.000170
50267	NaN	9.830623	-0.752345	-0.960075	-0.044968	-0.006831	0.093212	1.000000	0.000004	-0.000035	0.000150
50268	NaN	9.836168	-0.778344	-0.966035	-0.022166	-0.009980	0.101376	1.000000	0.000033	-0.000030	0.000142
50269	NaN	9.808570	-0.810863	-0.978872	0.014353	-0.006402	0.077889	1.000000	0.000004	-0.000033	0.000126
50270	NaN	9.819220	-0.827137	-1.017556	0.039126	0.024084	0.093601	1.000000	0.000011	-0.000005	0.000085
50271	NaN	9.800744	-0.868720	-0.976870	0.066353	-0.026077	0.074600	1.000000	-0.000045	0.000010	0.000096
50272	NaN	9.811465	-0.884594	-1.015039	0.091129	0.004408	0.090309	1.000000	-0.000032	0.000013	0.000084
50273	NaN	9.794863	-0.930197	-1.065254	0.152185	0.038712	0.082499	1.000000	-0.000027	0.000030	0.000084
50274	NaN	9.789718	-0.940600	-1.031825	0.150236	0.005101	0.074950	1.000000	-0.000061	0.000025	0.000078
50275	NaN	9.794683	-0.933026	-1.064433	0.153037	0.039095	0.082484	1.000000	-0.000038	0.000021	0.000070
50276	NaN	9.772309	-0.955182	-1.109212	0.190036	0.075977	0.066527	1.000000	-0.000057	0.000035	0.000069
50277	NaN	9.786271	-0.957516	-1.088976	0.183580	0.056191	0.078569	1.000000	-0.000068	0.000008	0.000071
50278	NaN	9.780388	-0.935635	-1.083385	0.160814	0.059384	0.070416	1.000000	-0.000056	0.000027	0.000068
50279	NaN	9.796255	-0.942002	-1.154193	0.187550	0.123413	0.093661	1.000000	-0.000091	0.000038	0.000064
50280	NaN	9.800163	-0.961737	-1.067672	0.176541	0.036160	0.090624	1.000000	-0.000094	0.000048	0.000033
50281	NaN	9.799515	-0.930079	-1.094351	0.155625	0.072952	0.090020	1.000000	-0.000099	0.000063	0.000027
50282	NaN	9.814366	-0.963526	-1.045621	0.169383	0.016169	0.102681	1.000000	-0.000103	0.000079	0.000022
50283	NaN	9.763999	-0.900895	-1.035112	0.113520	0.031901	0.046565	1.000000	-0.000109	0.000072	-0.000001
50284	NaN	9.764139	-0.900796	-1.033880	0.113556	0.031928	0.046564	1.000000	-0.000065	0.000070	0.000009
50285	NaN	9.774933	-0.834086	-0.976764	0.030603	0.001162	0.046225	1.000000	-0.000078	0.000050	0.000036
50286	NaN	9.785883	-0.848440	-1.014225	0.055408	0.031655	0.061923	1.000000	-0.000072	0.000053	0.000002
50287	NaN	9.764172	-0.820454	-0.936769	0.005521	-0.029422	0.030525	1.000000	-0.000059	0.000037	0.000037
50288	NaN	9.802437	-0.805385	-0.962181	-0.004678	-0.002150	0.069731	1.000000	-0.000043	0.000031	0.000032
50289	NaN	9.832952	-0.763184	-0.891040	-0.071875	-0.056264	0.089586	1.000000	-0.000035	0.000025	0.000029
50290	NaN	9.798477	-0.706094	-0.952533	-0.101267	0.023746	0.056721	1.000000	-0.000056	0.000038	0.000020
50291	NaN	9.832357	-0.731763	-0.917228	-0.093136	-0.019429	0.088978	1.000000	-0.000068	0.000053	0.000017
50292	NaN	9.812629	-0.707683	-0.930887	-0.108800	0.003772	0.068770	1.000000	-0.000092	0.000049	0.000016
50293	NaN	9.835164	-0.767928	-0.979266	-0.038748	0.028069	0.100780	1.000000	-0.000081	0.000044	-0.000004
50294	NaN	9.815488	-0.743389	-0.992835	-0.054413	0.051273	0.080571	1.000000	-0.000054	0.000065	-0.000011
50295	NaN	9.793149	-0.682740	-0.942641	-0.124636	0.027126	0.048560	1.000000	-0.000069	0.000047	-0.000015
50296	NaN	9.805976	-0.619350	-0.976711	-0.173331	0.080745	0.059402	1.000000	-0.000061	0.000064	-0.000008
50297	NaN	9.805595	-0.760467	-0.923979	-0.058671	-0.015778	0.065473	1.000000	-0.000064	0.000047	-0.000001
50298	NaN	9.796823	-0.750079	-0.975994	-0.049574	0.037899	0.060966	1.000000	-0.000075	0.000053	-0.000005
50299	NaN	9.796944	-0.749660	-0.975103	-0.049516	0.037922	0.060967	1.000000	-0.000032	0.000046	-0.000027
50300	NaN	9.816543	-0.692703	-0.865281	-0.141120	-0.046205	0.065117	1.000000	-0.000075	0.000036	0.000010
50301	NaN	9.787972	-0.658103	-0.931992	-0.147384	0.030388	0.040406	1.000000	-0.000067	0.000047	-0.000008
50302	NaN	9.825843	-0.783635	-0.905438	-0.042454	-0.039060	0.085685	1.000000	-0.000062	0.000046	0.000007
50303	NaN	9.797925	-0.781258	-0.944555	-0.027704	0.000119	0.061577	1.000000	-0.000094	0.000049	0.000009
50304	NaN	9.778230	-0.756937	-0.958214	-0.043370	0.023322	0.041372	1.000000	-0.000040	0.000050	0.000000
50305	NaN	9.813880	-0.705315	-0.919430	-0.107178	0.002587	0.068788	1.000000	-0.000077	0.000052	0.000012
50306	NaN	9.816082	-0.709068	-1.009824	-0.073302	0.086715	0.079991	1.000000	-0.000104	0.000048	0.000004
50307	NaN	9.809235	-0.795020	-0.979422	-0.001806	0.029477	0.077284	1.000000	-0.000100	0.000058	-0.000005
50308	NaN	9.800560	-0.784255	-1.031280	0.007297	0.083135	0.072787	1.000000	-0.000083	0.000062	-0.000026
50309	NaN	9.742619	-0.775073	-1.019007	0.002222	0.078583	0.013378	1.000000	-0.000046	0.000043	-0.000023
50310	NaN	9.809649	-0.793336	-0.976638	-0.001323	0.028999	0.077286	1.000000	-0.000057	0.000050	-0.000027
50311	NaN	9.781839	-0.790258	-1.015612	0.013557	0.068986	0.053183	1.000000	-0.000051	0.000059	-0.000028
50312	NaN	9.796568	-0.823081	-0.967321	0.027339	0.012182	0.065826	1.000000	-0.000068	0.000039	-0.000016
50313	NaN	9.785709	-0.808500	-0.928224	0.002951	-0.017635	0.050124	1.000000	-0.000074	0.000047	-0.000030
50314	NaN	9.829347	-0.783084	-0.986078	-0.005251	0.043258	0.096891	1.000000	-0.000070	0.000055	-0.000015
50315	NaN	9.816119	-0.813731	-0.977545	0.023880	0.025523	0.085430	1.000000	-0.000084	0.000068	-0.000001
50316	NaN	9.774926	-0.841825	-1.009317	0.066022	0.048778	0.049859	1.000000	-0.000108	0.000025	-0.000021
50317	NaN	9.827361	-0.826613	-1.014363	0.048957	0.055549	0.101130	1.000000	-0.000109	0.000074	-0.000025
50318	NaN	9.810143	-0.756557	-0.996684	-0.019374	0.065063	0.076704	1.000000	-0.000128	0.000072	-0.000036
50319	NaN	9.757449	-0.738000	-1.016936	-0.021829	0.094137	0.024857	1.000000	-0.000073	0.000080	-0.000036
50320	NaN	9.794872	-0.830590	-1.017450	0.062352	0.061454	0.069465	1.000000	-0.000114	0.000082	-0.000039
50321	NaN	9.800316	-0.820459	-1.048914	0.065410	0.094690	0.077021	1.000000	-0.000082	0.000079	-0.000041
50322	NaN	9.777874	-0.759481	-0.998187	-0.004881	0.070570	0.045051	1.000000	-0.000072	0.000073	-0.000037
50323	NaN	9.805983	-0.761116	-0.956807	-0.018992	0.029938	0.069156	1.000000	-0.000073	0.000080	-0.000036
50324	NaN	9.792248	-0.758782	-0.975491	-0.011829	0.049957	0.057106	1.000000	-0.000078	0.000065	-0.000060
50325	NaN	9.794730	-0.713065	-0.943286	-0.063898	0.035209	0.052892	1.000000	-0.000079	0.000069	-0.000011
50326	NaN	9.781551	-0.743195	-0.934791	-0.035906	0.018423	0.041412	1.000000	-0.000077	0.000057	-0.000061
50327	NaN	9.781738	-0.742214	-0.933605	-0.036198	0.017429	0.041413	1.000000	-0.000124	0.000079	-0.000020
50328	NaN	9.820261	-0.725716	-0.958105	-0.046330	0.044632	0.080644	1.000000	-0.000083	0.000062	-0.000026
50329	NaN	9.795396	-0.709919	-0.938730	-0.063592	0.033939	0.052899	1.000000	-0.000089	0.000053	-0.000025
50330	NaN	9.787441	-0.730999	-0.963295	-0.033628	0.050777	0.048986	1.000000	-0.000100	0.000059	-0.000029
50331	NaN	9.834065	-0.692570	-0.962352	-0.072373	0.059780	0.092150	1.000000	-0.000093	0.000069	-0.000031
50332	NaN	9.793616	-0.752718	-0.966411	-0.009389	0.046230	0.057126	1.000000	-0.000080	0.000077	-0.000010
50333	NaN	9.801280	-0.698225	-0.966939	-0.059328	0.065772	0.060495	1.000000	-0.000073	0.000063	-0.000021
50334	NaN	9.787523	-0.696411	-0.985670	-0.052150	0.085769	0.048451	1.000000	-0.000075	0.000079	-0.000019
50335	NaN	9.812733	-0.710907	-1.002681	-0.034186	0.096815	0.076193	1.000000	-0.000076	0.000071	-0.000028
50336	NaN	9.832717	-0.734329	-0.986666	-0.018356	0.073608	0.096365	1.000000	-0.000079	0.000097	-0.000049
50337	NaN	9.809580	-0.641084	-0.962706	-0.108485	0.085672	0.063878	1.000000	-0.000070	0.000098	-0.000044
50338	NaN	9.800114	-0.739041	-0.990364	-0.004985	0.079394	0.064706	1.000000	-0.000081	0.000087	-0.000033
50339	NaN	9.814242	-0.739505	-0.968735	-0.011533	0.059129	0.076753	1.000000	-0.000073	0.000088	-0.000035
50340	NaN	9.803316	-0.724867	-0.928706	-0.036199	0.028656	0.061056	1.000000	-0.000066	0.000090	-0.000037
50341	NaN	9.804081	-0.756354	-0.899892	-0.015298	-0.009437	0.061600	1.000000	-0.000055	0.000075	-0.000034
50342	NaN	9.822915	-0.715366	-0.938479	-0.041114	0.040935	0.080683	1.000000	-0.000071	0.000088	-0.000028
50343	NaN	9.810332	-0.777948	-0.902438	0.008239	-0.013514	0.069719	1.000000	-0.000087	0.000078	-0.000032
50344	NaN	9.809970	-0.744760	-0.928381	-0.012476	0.023252	0.069184	1.000000	-0.000081	0.000071	-0.000042
50345	NaN	9.796275	-0.742593	-0.947101	-0.004624	0.042672	0.057146	1.000000	-0.000094	0.000076	-0.000030
50346	NaN	9.835445	-0.758029	-0.943957	0.006139	0.033040	0.096929	1.000000	-0.000093	0.000086	-0.000046
50347	NaN	9.808488	-0.786602	-0.955062	0.041055	0.034683	0.073385	1.000000	-0.000090	0.000103	-0.000053
50348	NaN	9.833297	-0.767935	-0.999021	0.038049	0.081856	0.100604	1.000000	-0.000099	0.000079	-0.000069
50349	NaN	9.803179	-0.760454	-0.946136	0.018726	0.036253	0.065274	1.000000	-0.000102	0.000112	-0.000089
50350	NaN	9.836035	-0.719512	-0.964257	-0.014155	0.066546	0.096422	1.000000	-0.000090	0.000090	-0.000087
50351	NaN	9.797932	-0.733578	-0.936929	-0.003029	0.038597	0.057163	1.000000	-0.000087	0.000107	-0.000094
50352	NaN	9.771090	-0.761203	-0.947994	0.032062	0.041812	0.033609	1.000000	-0.000087	0.000091	-0.000104
50353	NaN	9.825199	-0.667290	-0.947720	-0.057465	0.071442	0.080218	1.000000	-0.000093	0.000098	-0.000093
50354	NaN	9.792998	-0.704278	-0.926007	-0.024337	0.041035	0.049058	1.000000	-0.000056	0.000097	-0.000105
50355	NaN	9.779462	-0.700774	-0.944401	-0.017419	0.060829	0.037026	1.000000	-0.000118	0.000086	-0.000103
50356	NaN	9.798422	-0.658281	-0.982795	-0.043219	0.111146	0.056156	1.000000	-0.000035	0.000083	-0.000096
50357	NaN	9.791928	-0.742699	-0.952307	0.028582	0.053383	0.053248	1.000000	-0.000071	0.000102	-0.000100
50358	NaN	9.818841	-0.678368	-0.964716	-0.027089	0.086823	0.076308	1.000000	-0.000090	0.000099	-0.000110
50359	NaN	9.831641	-0.754330	-0.946760	0.039523	0.043370	0.093022	1.000000	-0.000040	0.000109	-0.000125
50360	NaN	9.798989	-0.758386	-0.952128	0.051804	0.049756	0.061355	1.000000	-0.000115	0.000106	-0.000135
50361	NaN	9.848211	-0.705248	-0.891335	-0.018359	0.008173	0.100875	1.000000	-0.000082	0.000120	-0.000152
50362	NaN	9.795551	-0.809057	-1.037442	0.138180	0.112486	0.069211	1.000000	-0.000091	0.000137	-0.000172
50363	NaN	9.811274	-0.747108	-0.833740	0.012973	-0.057418	0.062075	1.000000	-0.000095	0.000143	-0.000154
50364	NaN	9.817134	-0.717239	-1.040859	0.059866	0.147503	0.084211	1.000000	-0.000039	0.000128	-0.000164
50365	NaN	9.823007	-0.721798	-0.894402	0.018184	0.008436	0.077308	1.000000	-0.000092	0.000119	-0.000157
50366	NaN	9.800006	-0.659224	-0.842663	-0.052067	-0.015771	0.045397	1.000000	-0.000051	0.000108	-0.000138
50367	NaN	9.789621	-0.658208	-0.951799	-0.011073	0.088146	0.044693	1.000000	-0.000039	0.000124	-0.000116
50368	NaN	9.816232	-0.611349	-0.787090	-0.111494	-0.049853	0.053252	1.000000	-0.000052	0.000078	-0.000075
50369	NaN	9.785944	-0.586906	-0.911394	-0.087146	0.076064	0.032434	1.000000	-0.000065	0.000085	-0.000087
50370	NaN	9.813749	-0.587891	-0.869820	-0.101103	0.035868	0.056475	1.000000	-0.000055	0.000061	-0.000067
50371	NaN	9.825437	-0.599922	-0.906700	-0.076442	0.065734	0.072203	1.000000	-0.000072	0.000100	-0.000075
50372	NaN	9.821963	-0.563161	-0.840963	-0.130940	0.018304	0.060399	1.000000	-0.000074	0.000074	-0.000069
50373	NaN	9.809547	-0.483024	-0.855227	-0.196889	0.059788	0.043762	1.000000	-0.000046	0.000098	-0.000100
50374	NaN	9.848831	-0.497185	-0.851762	-0.186068	0.050017	0.083526	1.000000	-0.000048	0.000072	-0.000093
50375	NaN	9.841914	-0.549613	-0.848753	-0.134290	0.028776	0.080081	1.000000	-0.000037	0.000097	-0.000070
50376	NaN	9.815201	-0.577956	-0.860034	-0.099193	0.031977	0.056508	1.000000	-0.000054	0.000094	-0.000073
50377	NaN	9.824811	-0.510194	-0.801218	-0.181704	0.001051	0.056261	1.000000	0.000014	0.000081	-0.000071
50378	NaN	9.817282	-0.530648	-0.825537	-0.151697	0.017813	0.052342	1.000000	0.000013	0.000063	-0.000056
50379	NaN	9.817433	-0.529710	-0.824350	-0.151624	0.016689	0.052345	1.000000	-0.000013	0.000058	-0.000040
50380	NaN	9.837412	-0.552905	-0.808678	-0.135707	-0.006663	0.072446	1.000000	0.000001	0.000062	-0.000068
50381	NaN	9.823806	-0.550566	-0.827666	-0.128003	0.011624	0.060448	1.000000	-0.000028	0.000055	-0.000036
50382	NaN	9.817881	-0.526671	-0.820957	-0.150674	0.014651	0.052363	1.000000	-0.000018	0.000058	-0.000055
50383	NaN	9.835663	-0.562156	-0.863715	-0.102278	0.040601	0.076204	1.000000	-0.000032	0.000071	-0.000041
50384	NaN	9.835816	-0.561287	-0.862529	-0.102129	0.040453	0.076206	1.000000	-0.000037	0.000054	-0.000041
50385	NaN	9.789806	-0.598544	-0.861993	-0.062665	0.028923	0.032963	1.000000	-0.000043	0.000060	-0.000031
50386	NaN	9.814678	-0.580210	-0.906219	-0.065664	0.075923	0.060291	1.000000	-0.000043	0.000060	-0.000031
50387	NaN	9.820905	-0.602579	-0.910645	-0.042760	0.071657	0.068384	1.000000	-0.000042	0.000068	-0.000022
50388	NaN	9.814957	-0.579098	-0.903906	-0.065441	0.074662	0.060302	1.000000	-0.000047	0.000051	-0.000022
50389	NaN	9.801922	-0.609739	-0.895924	-0.036570	0.057426	0.048727	1.000000	-0.000048	0.000058	-0.000021
50390	NaN	9.813653	-0.622561	-0.933206	-0.011663	0.087705	0.064479	1.000000	-0.000053	0.000059	-0.000036
50391	NaN	9.806723	-0.676241	-0.930703	0.038959	0.067060	0.060980	1.000000	-0.000035	0.000067	-0.000000
50392	NaN	9.820005	-0.644839	-0.936523	0.011190	0.083602	0.072568	1.000000	-0.000031	0.000053	-0.000019
50393	NaN	9.808530	-0.630909	-0.897096	-0.013645	0.051500	0.056823	1.000000	-0.000009	0.000057	-0.000025
50394	NaN	9.847164	-0.614030	-0.921096	-0.023687	0.078397	0.096167	1.000000	-0.000017	0.000064	-0.000022
50395	NaN	9.835686	-0.600087	-0.881566	-0.047815	0.045675	0.080422	1.000000	-0.000048	0.000058	-0.000021
50396	NaN	9.820008	-0.610382	-0.958994	-0.008865	0.116071	0.072212	1.000000	-0.000020	0.000072	-0.000029
50397	NaN	9.821301	-0.674898	-0.903391	0.033727	0.042243	0.072991	1.000000	-0.000031	0.000076	-0.000009
50398	NaN	9.830052	-0.575714	-0.871698	-0.069534	0.048171	0.072355	1.000000	-0.000032	0.000086	-0.000032
50399	NaN	9.802806	-0.572455	-0.910394	-0.054346	0.085241	0.048414	1.000000	-0.000014	0.000081	-0.000030
50400	NaN	9.830387	-0.574537	-0.868687	-0.068245	0.044873	0.072380	1.000000	-0.000057	0.000065	-0.000018
50401	NaN	9.797003	-0.548495	-0.902137	-0.077661	0.088425	0.040338	1.000000	-0.000049	0.000066	-0.000020
50402	NaN	9.841408	-0.664030	-0.908694	0.029563	0.052318	0.092683	1.000000	-0.000047	0.000091	-0.000027
50403	NaN	9.836417	-0.563459	-0.897109	-0.066134	0.078237	0.080082	1.000000	-0.000050	0.000074	-0.000019
50404	NaN	9.804536	-0.492809	-0.899015	-0.127448	0.107609	0.043894	1.000000	-0.000049	0.000066	-0.000020
50405	NaN	9.845756	-0.496454	-0.837219	-0.147581	0.047443	0.079850	1.000000	-0.000060	0.000071	-0.000000
50406	NaN	9.791646	-0.523346	-0.889587	-0.098476	0.090799	0.032294	1.000000	-0.000073	0.000062	-0.000021
50407	NaN	9.829398	-0.583434	-0.917848	-0.036066	0.094644	0.076177	1.000000	-0.000035	0.000069	-0.000024
50408	NaN	9.805631	-0.523531	-0.866808	-0.106346	0.070346	0.044268	1.000000	-0.000045	0.000076	-0.000029
50409	NaN	9.838749	-0.515924	-0.857744	-0.117579	0.061497	0.075956	1.000000	-0.000055	0.000075	-0.000034
50410	NaN	9.799477	-0.608638	-0.835564	-0.033725	0.011247	0.041098	1.000000	-0.000027	0.000088	-0.000041
50411	NaN	9.833146	-0.633204	-0.799411	-0.024857	-0.032629	0.073114	1.000000	-0.000068	0.000066	-0.000055
50412	NaN	9.806862	-0.552229	-0.834116	-0.084250	0.030343	0.044656	1.000000	-0.000038	0.000064	-0.000064
50413	NaN	9.891873	-0.638557	-0.807247	-0.018786	-0.030400	0.132526	1.000000	-0.000022	0.000089	-0.000051
50414	NaN	9.828085	-0.639511	-0.762568	-0.026233	-0.067981	0.065391	1.000000	-0.000059	0.000065	-0.000026
50415	NaN	9.839444	-0.619688	-0.826734	-0.021615	-0.001287	0.080830	1.000000	-0.000086	0.000069	-0.000033
50416	NaN	9.803892	-0.714864	-0.896115	0.095943	0.032593	0.057474	1.000000	-0.000057	0.000075	-0.000041
50417	NaN	9.807375	-0.657221	-0.804676	0.009011	-0.032104	0.049510	1.000000	-0.000101	0.000076	-0.000052
50418	NaN	9.824434	-0.627258	-0.901348	0.014915	0.068470	0.072680	1.000000	-0.000055	0.000077	-0.000058
50419	NaN	9.810707	-0.733938	-0.897562	0.116571	0.028437	0.065565	1.000000	-0.000081	0.000083	-0.000090
50420	NaN	9.819311	-0.633485	-0.865478	0.013278	0.034309	0.064958	1.000000	-0.000136	0.000105	-0.000072
50421	NaN	9.823909	-0.666418	-0.927843	0.067930	0.079823	0.076863	1.000000	-0.000051	0.000098	-0.000114
50422	NaN	9.813473	-0.715949	-0.833776	0.085073	-0.024351	0.061733	1.000000	-0.000109	0.000087	-0.000098
50423	NaN	9.839453	-0.619025	-0.872703	0.008321	0.045307	0.084662	1.000000	-0.000098	0.000096	-0.000084
50424	NaN	9.805524	-0.668569	-0.910224	0.073188	0.065436	0.057174	1.000000	-0.000053	0.000096	-0.000098
50425	NaN	9.829951	-0.590128	-0.772415	-0.047488	-0.036044	0.065027	1.000000	-0.000120	0.000074	-0.000063
50426	NaN	9.798761	-0.577338	-0.955624	0.009281	0.141725	0.048453	1.000000	-0.000081	0.000073	-0.000067
50427	NaN	9.789422	-0.583412	-0.830517	-0.025933	0.023870	0.029145	1.000000	-0.000097	0.000060	-0.000047
50428	NaN	9.833821	-0.555979	-0.886993	-0.034068	0.084239	0.076278	1.000000	-0.000092	0.000062	-0.000056
50429	NaN	9.807282	-0.584403	-0.899384	0.002237	0.088082	0.052678	1.000000	-0.000081	0.000057	-0.000076
50430	NaN	9.856971	-0.520893	-0.780317	-0.101191	-0.003103	0.088315	1.000000	-0.000074	0.000041	-0.000063
50431	NaN	9.847942	-0.552905	-0.863991	-0.038493	0.061771	0.088264	1.000000	-0.000070	0.000051	-0.000072
50432	NaN	9.849851	-0.539452	-0.804539	-0.070138	0.011016	0.084424	1.000000	-0.000094	0.000047	-0.000073
50433	NaN	9.829017	-0.557871	-0.849552	-0.031864	0.047738	0.068570	1.000000	-0.000066	0.000078	-0.000095
50434	NaN	9.830418	-0.511366	-0.816726	-0.084404	0.033739	0.064427	1.000000	-0.000087	0.000050	-0.000099
50435	NaN	9.838526	-0.520505	-0.763004	-0.093216	-0.020656	0.068637	1.000000	-0.000064	0.000044	-0.000082
50436	NaN	9.839262	-0.442110	-0.757637	-0.166662	0.002098	0.064193	1.000000	-0.000098	0.000027	-0.000041
50437	NaN	9.812681	-0.470800	-0.770684	-0.130468	0.001798	0.040601	1.000000	-0.000058	0.000028	-0.000069
50438	NaN	9.844524	-0.506981	-0.794106	-0.089754	0.008699	0.076405	1.000000	-0.000107	0.000026	-0.000047
50439	NaN	9.829875	-0.548957	-0.845426	-0.030181	0.040470	0.068608	1.000000	-0.000095	0.000045	-0.000049
50440	NaN	9.850447	-0.494829	-0.825285	-0.087795	0.039893	0.084179	1.000000	-0.000103	0.000053	-0.000070
50441	NaN	9.857406	-0.548850	-0.803066	-0.043637	-0.002357	0.092498	1.000000	-0.000048	0.000062	-0.000070
50442	NaN	9.845082	-0.501474	-0.790674	-0.089178	0.003688	0.076413	1.000000	-0.000103	0.000038	-0.000079
50443	NaN	9.850364	-0.457399	-0.849322	-0.106973	0.074107	0.083943	1.000000	-0.000034	0.000058	-0.000082
50444	NaN	9.824453	-0.518392	-0.834973	-0.051018	0.040574	0.060586	1.000000	-0.000022	0.000051	-0.000070
50445	NaN	9.860230	-0.453742	-0.735891	-0.147831	-0.032884	0.084212	1.000000	-0.000085	0.000048	-0.000068
50446	NaN	9.836143	-0.495958	-0.898444	-0.047441	0.104991	0.076175	1.000000	-0.000006	0.000046	-0.000075
50447	NaN	9.832809	-0.525113	-0.779465	-0.060199	-0.017063	0.064738	1.000000	-0.000053	0.000045	-0.000070
50448	NaN	9.839138	-0.436886	-0.806337	-0.131757	0.039169	0.068143	1.000000	-0.000029	0.000049	-0.000068
50449	NaN	9.812650	-0.465395	-0.819230	-0.096604	0.040396	0.044537	1.000000	-0.000065	0.000027	-0.000067
50450	NaN	9.833660	-0.443792	-0.772594	-0.133283	0.003000	0.060354	1.000000	-0.000057	0.000020	-0.000070
50451	NaN	9.807157	-0.472328	-0.785778	-0.097795	0.006243	0.036742	1.000000	-0.000056	0.000028	-0.000062
50452	NaN	9.851081	-0.521388	-0.847640	-0.032342	0.043492	0.088384	1.000000	-0.000057	0.000020	-0.000070
50453	NaN	9.852794	-0.508335	-0.788603	-0.064787	-0.009061	0.084462	1.000000	-0.000053	0.000028	-0.000055
50454	NaN	9.884196	-0.511632	-0.838619	-0.045020	0.034491	0.120044	1.000000	-0.000056	0.000053	-0.000076
50455	NaN	9.832197	-0.525343	-0.833337	-0.027922	0.024599	0.068667	1.000000	-0.000057	0.000030	-0.000094
50456	NaN	9.840621	-0.457905	-0.774857	-0.110272	-0.006525	0.068391	1.000000	-0.000081	0.000047	-0.000053
50457	NaN	9.799990	-0.452535	-0.834866	-0.088506	0.052571	0.032667	1.000000	-0.000041	0.000031	-0.000066
50458	NaN	9.813674	-0.452694	-0.814067	-0.095365	0.032099	0.044580	1.000000	-0.000076	0.000031	-0.000047
50459	NaN	9.839349	-0.466169	-0.831698	-0.077708	0.040708	0.072358	1.000000	-0.000088	0.000028	-0.000036
50460	NaN	9.812260	-0.462392	-0.871934	-0.063653	0.080650	0.048548	1.000000	-0.000090	0.000005	-0.000054
50461	NaN	9.800330	-0.448333	-0.833143	-0.087686	0.048366	0.032695	1.000000	-0.000090	0.000044	-0.000034
50462	NaN	9.826972	-0.417464	-0.818897	-0.122465	0.044454	0.056319	1.000000	-0.000082	0.000022	-0.000046
50463	NaN	9.825470	-0.428049	-0.877406	-0.090413	0.093294	0.060309	1.000000	-0.000047	-0.000004	-0.000051
50464	NaN	9.800518	-0.445519	-0.832439	-0.087093	0.045945	0.032712	1.000000	-0.000089	0.000011	-0.000021
50465	NaN	9.821376	-0.424887	-0.786217	-0.123160	0.006311	0.048493	1.000000	-0.000069	-0.000010	-0.000021
50466	NaN	9.839094	-0.427646	-0.857514	-0.096457	0.069923	0.072240	1.000000	-0.000049	-0.000016	-0.000011
50467	NaN	9.852332	-0.505794	-0.842533	-0.028876	0.023849	0.088461	1.000000	-0.000091	0.000001	-0.000005
50468	NaN	9.840969	-0.338601	-0.794208	-0.200700	0.038768	0.063967	1.000000	-0.000084	-0.000015	0.000008
50469	NaN	9.838435	-0.394561	-0.885018	-0.115143	0.101700	0.072156	1.000000	-0.000021	-0.000012	0.000005
50470	NaN	9.827597	-0.447217	-0.793476	-0.097766	-0.002535	0.056543	1.000000	-0.000093	-0.000026	0.000026
50471	NaN	9.846221	-0.406240	-0.833033	-0.125130	0.045915	0.076159	1.000000	-0.000060	-0.000011	0.000009
50472	NaN	9.839875	-0.383575	-0.827524	-0.147862	0.048665	0.068144	1.000000	-0.000040	-0.000016	0.000019
50473	NaN	9.823076	-0.336502	-0.725028	-0.226794	-0.031865	0.040194	1.000000	-0.000055	-0.000019	0.000023
50474	NaN	9.867274	-0.310209	-0.782921	-0.235011	0.028064	0.087629	1.000000	-0.000063	-0.000038	0.000040
50475	NaN	9.833972	-0.394996	-0.796660	-0.149480	0.010066	0.060268	1.000000	-0.000064	-0.000030	0.000041
50476	NaN	9.840557	-0.341825	-0.797925	-0.200155	0.029326	0.064011	1.000000	-0.000056	-0.000024	0.000071
50477	NaN	9.789288	-0.314128	-0.762372	-0.234951	0.007613	0.008453	1.000000	-0.000065	-0.000056	0.000047
50478	NaN	9.859222	-0.412529	-0.817343	-0.130800	0.018219	0.088073	1.000000	-0.000067	-0.000050	0.000072
50479	NaN	9.833497	-0.399627	-0.800206	-0.148068	0.005980	0.060293	1.000000	-0.000070	-0.000052	0.000089
50480	NaN	9.832736	-0.368569	-0.828078	-0.168961	0.042249	0.060201	1.000000	-0.000059	-0.000058	0.000094
50481	NaN	9.818972	-0.368962	-0.849516	-0.159182	0.061262	0.048394	1.000000	-0.000064	-0.000060	0.000103
50482	NaN	9.838669	-0.395120	-0.836385	-0.143142	0.037499	0.068262	1.000000	-0.000074	-0.000061	0.000098
50483	NaN	9.837420	-0.441396	-0.869669	-0.090878	0.050190	0.072413	1.000000	-0.000066	-0.000070	0.000119
50484	NaN	9.804902	-0.483304	-0.852224	-0.057729	0.019869	0.040852	1.000000	-0.000061	-0.000068	0.000110
50485	NaN	9.857934	-0.425662	-0.826093	-0.127104	0.010610	0.088132	1.000000	-0.000062	-0.000060	0.000111
50486	NaN	9.857747	-0.427692	-0.827280	-0.126987	0.010160	0.088134	1.000000	-0.000112	-0.000053	0.000110
50487	NaN	9.802634	-0.500557	-0.914345	-0.025130	0.066685	0.044956	1.000000	-0.000067	-0.000034	0.000082
50488	NaN	9.855235	-0.519350	-0.892921	-0.021103	0.036067	0.096447	1.000000	-0.000116	-0.000035	0.000080
50489	NaN	9.808608	-0.526079	-0.921642	-0.002239	0.061314	0.052971	1.000000	-0.000090	-0.000021	0.000066
50490	NaN	9.815310	-0.472916	-0.922761	-0.052924	0.080491	0.056769	1.000000	-0.000109	-0.000023	0.000055
50491	NaN	9.813471	-0.595307	-0.960801	0.076429	0.070600	0.065112	1.000000	-0.000098	-0.000040	0.000083
50492	NaN	9.826928	-0.598271	-0.941259	0.069641	0.049942	0.076957	1.000000	-0.000101	-0.000016	0.000086
50493	NaN	9.814346	-0.553864	-0.929931	0.024419	0.052860	0.060992	1.000000	-0.000090	-0.000021	0.000066
50494	NaN	9.840261	-0.602522	-0.922227	0.063349	0.025909	0.088807	1.000000	-0.000054	-0.000041	0.000094
50495	NaN	9.838371	-0.615466	-0.981692	0.094612	0.073900	0.092950	1.000000	-0.000085	-0.000029	0.000079
50496	NaN	9.841123	-0.561380	-0.891628	0.010543	0.008851	0.084669	1.000000	-0.000075	-0.000028	0.000085
50497	NaN	9.846680	-0.552720	-0.924654	0.014707	0.039986	0.092653	1.000000	-0.000077	-0.000010	0.000063
50498	NaN	9.859036	-0.599425	-0.936576	0.060558	0.033228	0.108618	1.000000	-0.000059	0.000010	0.000051
50499	NaN	9.859691	-0.523087	-0.930859	-0.012203	0.054620	0.104494	1.000000	-0.000061	0.000028	0.000029
50500	NaN	9.834226	-0.508949	-0.912059	-0.029837	0.043922	0.076704	1.000000	-0.000051	0.000031	0.000010
50501	NaN	9.855821	-0.522136	-0.838449	-0.043376	-0.031835	0.092358	1.000000	-0.000052	0.000039	0.000011
50502	NaN	9.829862	-0.475119	-0.845875	-0.082071	-0.005872	0.064593	1.000000	-0.000060	0.000061	0.000023
50503	NaN	9.831122	-0.431163	-0.812917	-0.132649	-0.022806	0.060488	1.000000	-0.000036	0.000034	0.000006
50504	NaN	9.836855	-0.421433	-0.844831	-0.130710	0.010206	0.068500	1.000000	-0.000062	0.000036	0.000030
50505	NaN	9.818096	-0.463158	-0.805337	-0.103485	-0.042126	0.048631	1.000000	-0.000078	0.000025	0.000025
50506	NaN	9.836906	-0.422369	-0.843772	-0.129507	0.007296	0.068519	1.000000	-0.000067	0.000034	0.000039
50507	NaN	9.817126	-0.398595	-0.857417	-0.146259	0.028265	0.048744	1.000000	-0.000060	0.000035	0.000037
50508	NaN	9.841967	-0.490423	-0.880646	-0.054643	0.015250	0.080601	1.000000	-0.000040	0.000024	0.000014
50509	NaN	9.868718	-0.460706	-0.866237	-0.088241	0.009909	0.104285	1.000000	-0.000056	0.000039	-0.000004
50510	NaN	9.868779	-0.460606	-0.865600	-0.088087	0.009360	0.104287	1.000000	-0.000021	0.000029	0.000001
50511	NaN	9.844520	-0.401921	-0.814601	-0.157533	-0.015655	0.072384	1.000000	-0.000034	0.000036	-0.000011
50512	NaN	9.863213	-0.470217	-0.831617	-0.088767	-0.025550	0.096255	1.000000	-0.000036	0.000051	-0.000009
50513	NaN	9.843988	-0.478417	-0.818475	-0.083445	-0.039991	0.076413	1.000000	-0.000073	0.000037	-0.000007
50514	NaN	9.857174	-0.446727	-0.824040	-0.111253	-0.024146	0.088299	1.000000	-0.000047	0.000051	-0.000022
50515	NaN	9.817003	-0.474329	-0.857121	-0.069748	-0.000524	0.052825	1.000000	-0.000065	0.000056	-0.000024
50516	NaN	9.836909	-0.498233	-0.841900	-0.053585	-0.024436	0.072572	1.000000	-0.000062	0.000048	-0.000018
50517	NaN	9.804109	-0.504622	-0.848977	-0.042164	-0.020433	0.040930	1.000000	-0.000046	0.000043	-0.000023
50518	NaN	9.850203	-0.465974	-0.846526	-0.081937	-0.011589	0.084453	1.000000	-0.000038	0.000052	-0.000017
50519	NaN	9.841812	-0.530780	-0.903681	0.002169	0.017925	0.084752	1.000000	-0.000062	0.000073	-0.000032
50520	NaN	9.849344	-0.508710	-0.876115	-0.027401	0.000210	0.088584	1.000000	-0.000065	0.000073	-0.000039
50521	NaN	9.803703	-0.436113	-0.897278	-0.080483	0.048859	0.041196	1.000000	-0.000057	0.000075	-0.000041
50522	NaN	9.836110	-0.505340	-0.893558	-0.018542	0.018706	0.076811	1.000000	-0.000032	0.000071	-0.000041
50523	NaN	9.791883	-0.531444	-0.835294	-0.009650	-0.042425	0.029021	1.000000	-0.000054	0.000051	-0.000044
50524	NaN	9.837513	-0.459514	-0.859172	-0.070522	0.002995	0.072706	1.000000	-0.000004	0.000059	-0.000034
50525	NaN	9.824098	-0.457178	-0.878080	-0.061636	0.021955	0.060947	1.000000	-0.000001	0.000076	-0.000042
50526	NaN	9.842960	-0.524927	-0.894555	0.007166	0.012066	0.084759	1.000000	-0.000030	0.000071	-0.000033
50527	NaN	9.844242	-0.479771	-0.860858	-0.044128	-0.003569	0.080664	1.000000	-0.000043	0.000088	-0.000068
50528	NaN	9.823583	-0.498084	-0.905621	-0.007420	0.033288	0.065058	1.000000	-0.000002	0.000086	-0.000065
50529	NaN	9.811789	-0.483902	-0.865534	-0.032296	0.001373	0.049030	1.000000	-0.000012	0.000078	-0.000079
50530	NaN	9.850638	-0.465549	-0.888539	-0.042313	0.027275	0.088765	1.000000	-0.000031	0.000081	-0.000057
50531	NaN	9.804906	-0.502673	-0.888462	-0.002251	0.016303	0.045200	1.000000	-0.000009	0.000100	-0.000053
50532	NaN	9.846786	-0.462064	-0.793841	-0.075142	-0.059195	0.076384	1.000000	-0.000034	0.000073	-0.000073
50533	NaN	9.824662	-0.491299	-0.897580	-0.007492	0.028446	0.065073	1.000000	-0.000015	0.000078	-0.000086
50534	NaN	9.839421	-0.447357	-0.843600	-0.066739	-0.006499	0.072731	1.000000	-0.000031	0.000081	-0.000057
50535	NaN	9.826090	-0.444392	-0.862209	-0.058501	0.013710	0.060981	1.000000	0.000001	0.000088	-0.000082
50536	NaN	9.852891	-0.413140	-0.846548	-0.093128	0.009176	0.084688	1.000000	-0.000018	0.000084	-0.000068
50537	NaN	9.787391	-0.425479	-0.860837	-0.069924	0.020209	0.021426	1.000000	-0.000009	0.000095	-0.000086
50538	NaN	9.841219	-0.397364	-0.804720	-0.118192	-0.024921	0.068632	1.000000	-0.000007	0.000069	-0.000065
50539	NaN	9.826916	-0.438639	-0.855716	-0.057613	0.008434	0.060992	1.000000	0.000009	0.000080	-0.000060
50540	NaN	9.841538	-0.394987	-0.801978	-0.116841	-0.026552	0.068644	1.000000	-0.000017	0.000050	-0.000055
50541	NaN	9.821397	-0.446437	-0.821005	-0.059675	-0.027744	0.052852	1.000000	-0.000001	0.000045	-0.000060
50542	NaN	9.840873	-0.436713	-0.832164	-0.064607	-0.015137	0.072735	1.000000	-0.000029	0.000065	-0.000059
50543	NaN	9.834232	-0.380119	-0.851551	-0.109261	0.023632	0.065027	1.000000	-0.000009	0.000057	-0.000025
50544	NaN	9.821301	-0.410809	-0.844413	-0.081123	0.006706	0.053068	1.000000	-0.000018	0.000033	-0.000040
50545	NaN	9.847030	-0.424242	-0.861936	-0.061593	0.015500	0.080891	1.000000	-0.000003	0.000036	-0.000045
50546	NaN	9.820112	-0.420118	-0.901827	-0.047818	0.055477	0.057420	1.000000	0.000010	0.000031	-0.000057
50547	NaN	9.815767	-0.417905	-0.809992	-0.082196	-0.030551	0.044915	1.000000	0.000001	0.000030	-0.000062
50548	NaN	9.855018	-0.432679	-0.807238	-0.071058	-0.041365	0.084457	1.000000	0.000004	0.000037	-0.000047
50549	NaN	9.848811	-0.409057	-0.800407	-0.093734	-0.040535	0.076530	1.000000	-0.000003	0.000051	-0.000035
50550	NaN	9.829569	-0.417035	-0.787343	-0.088477	-0.054364	0.056632	1.000000	0.000004	0.000035	-0.000022
50551	NaN	9.829645	-0.416482	-0.786684	-0.086197	-0.054586	0.056651	1.000000	-0.000015	0.000033	-0.000033
50552	NaN	9.835076	-0.373058	-0.844895	-0.105520	0.014881	0.065085	1.000000	-0.000026	0.000052	-0.000004
50553	NaN	9.823473	-0.393201	-0.779126	-0.108046	-0.053517	0.048739	1.000000	-0.000021	0.000029	0.000001
50554	NaN	9.836538	-0.361840	-0.784765	-0.135864	-0.037870	0.060730	1.000000	-0.000029	0.000035	0.000004
50555	NaN	9.842430	-0.351708	-0.816619	-0.132615	-0.006046	0.068931	1.000000	-0.000046	0.000033	0.000000
50556	NaN	9.849652	-0.330379	-0.789837	-0.162121	-0.023913	0.072745	1.000000	-0.000045	0.000025	-0.000001
50557	NaN	9.836208	-0.328805	-0.809497	-0.156602	-0.004905	0.061007	1.000000	-0.000038	0.000042	0.000007
50558	NaN	9.849772	-0.330270	-0.788384	-0.163225	-0.025865	0.072722	1.000000	-0.000067	0.000046	-0.000009
50559	NaN	9.862871	-0.298443	-0.793793	-0.189744	-0.011671	0.084750	1.000000	-0.000056	0.000041	-0.000028
50560	NaN	9.849929	-0.329279	-0.786837	-0.161584	-0.028582	0.072742	1.000000	-0.000075	0.000037	-0.000015
50561	NaN	9.870650	-0.309291	-0.739530	-0.197303	-0.066856	0.088267	1.000000	-0.000074	0.000044	-0.000007
50562	NaN	9.810903	-0.312948	-0.787549	-0.171701	-0.019707	0.033232	1.000000	-0.000077	0.000027	0.000001
50563	NaN	9.850566	-0.361640	-0.758465	-0.140309	-0.066846	0.072430	1.000000	-0.000084	0.000026	0.000003
50564	NaN	9.842998	-0.349800	-0.810572	-0.131683	-0.013676	0.068936	1.000000	-0.000097	0.000048	0.000001
50565	NaN	9.856567	-0.351326	-0.789238	-0.137277	-0.034951	0.080653	1.000000	-0.000129	0.000066	0.000012
50566	NaN	9.843175	-0.349611	-0.808504	-0.130333	-0.015275	0.068951	1.000000	-0.000107	0.000047	-0.000005
50567	NaN	9.828967	-0.391732	-0.860134	-0.069973	0.019732	0.061349	1.000000	-0.000093	0.000058	-0.000008
50568	NaN	9.810628	-0.465961	-0.793990	-0.022277	-0.067231	0.040787	1.000000	-0.000061	0.000055	-0.000010
50569	NaN	9.844252	-0.304924	-0.773272	-0.181660	-0.030829	0.064877	1.000000	-0.000077	0.000043	0.000010
50570	NaN	9.810213	-0.323098	-0.839520	-0.138282	0.026430	0.037676	1.000000	-0.000024	0.000027	0.000017
50571	NaN	9.841894	-0.437554	-0.868964	-0.022688	0.010010	0.077147	1.000000	-0.000053	0.000036	0.000035
50572	NaN	9.834830	-0.458951	-0.894321	0.007147	0.026613	0.073342	1.000000	-0.000085	0.000066	-0.000002
50573	NaN	9.874890	-0.430591	-0.858846	-0.034618	0.000531	0.108768	1.000000	-0.000002	0.000041	-0.000012
50574	NaN	9.829960	-0.424574	-0.827380	-0.047155	-0.023345	0.061023	1.000000	-0.000036	0.000077	-0.000023
50575	NaN	9.855795	-0.438353	-0.844067	-0.030264	-0.015178	0.088835	1.000000	-0.000034	0.000076	-0.000016
50576	NaN	9.828662	-0.511661	-0.889187	0.057217	0.002454	0.069204	1.000000	-0.000042	0.000067	-0.000022
50577	NaN	9.849387	-0.491525	-0.841197	0.020497	-0.035739	0.084683	1.000000	-0.000046	0.000076	-0.000028
50578	NaN	9.816718	-0.497873	-0.848025	0.032520	-0.029197	0.053065	1.000000	-0.000020	0.000064	-0.000029
50579	NaN	9.836236	-0.488671	-0.858739	0.028202	-0.016629	0.072994	1.000000	-0.000007	0.000082	-0.000031
50580	NaN	9.817347	-0.419812	-0.839357	-0.040333	-0.008042	0.049330	1.000000	-0.000054	0.000057	-0.000012
50581	NaN	9.836825	-0.410909	-0.850339	-0.043254	0.003087	0.069275	1.000000	-0.000015	0.000063	-0.000014
50582	NaN	9.810876	-0.473536	-0.837071	0.012912	-0.029995	0.045160	1.000000	-0.000023	0.000044	0.000003
50583	NaN	9.831062	-0.420857	-0.816105	-0.044213	-0.032457	0.061011	1.000000	-0.000041	0.000034	-0.000009
50584	NaN	9.843736	-0.356353	-0.847903	-0.093298	0.019634	0.073463	1.000000	0.000009	0.000042	0.000001
50585	NaN	9.837865	-0.366547	-0.814736	-0.093584	-0.014511	0.065206	1.000000	-0.000006	0.000032	-0.000003
50586	NaN	9.838669	-0.322536	-0.781630	-0.145963	-0.029391	0.061128	1.000000	-0.000016	0.000046	0.000001
50587	NaN	9.871972	-0.348537	-0.745910	-0.135290	-0.075457	0.092346	1.000000	0.000004	0.000066	-0.000003
50588	NaN	9.859359	-0.302740	-0.732839	-0.180924	-0.070000	0.076601	1.000000	-0.000012	0.000040	-0.000017
50589	NaN	9.865768	-0.325316	-0.738156	-0.155765	-0.075448	0.084490	1.000000	-0.000006	0.000032	-0.000003
50590	NaN	9.859489	-0.302580	-0.731156	-0.178489	-0.073072	0.076623	1.000000	-0.000017	0.000069	0.000011
50591	NaN	9.840195	-0.311079	-0.717964	-0.173112	-0.086992	0.056666	1.000000	-0.000005	0.000041	-0.000019
50592	NaN	9.852582	-0.323298	-0.755470	-0.148391	-0.057266	0.072824	1.000000	-0.000014	0.000056	-0.000015
50593	NaN	9.859027	-0.345904	-0.760387	-0.124738	-0.062318	0.080684	1.000000	-0.000002	0.000056	-0.000002
50594	NaN	9.826320	-0.352789	-0.767457	-0.112735	-0.055736	0.049067	1.000000	-0.000020	0.000062	-0.000005
50595	NaN	9.832394	-0.342360	-0.798599	-0.111469	-0.023365	0.057367	1.000000	-0.000016	0.000071	-0.000013
50596	NaN	9.852278	-0.366350	-0.783073	-0.095095	-0.047492	0.076878	1.000000	-0.000033	0.000053	-0.000026
50597	NaN	9.845645	-0.310059	-0.802284	-0.138010	-0.009073	0.069488	1.000000	-0.000065	0.000071	-0.000015
50598	NaN	9.852120	-0.332401	-0.807066	-0.114914	-0.012826	0.077346	1.000000	-0.000049	0.000058	-0.000021
50599	NaN	9.845933	-0.419284	-0.779608	-0.042237	-0.069954	0.072620	1.000000	-0.000058	0.000047	-0.000003
50600	NaN	9.826239	-0.394627	-0.793124	-0.058257	-0.047213	0.053119	1.000000	-0.000059	0.000039	-0.000012
50601	NaN	9.833364	-0.373044	-0.765902	-0.086214	-0.064308	0.056925	1.000000	-0.000040	0.000052	-0.000024
50602	NaN	9.859881	-0.342728	-0.750692	-0.120741	-0.069247	0.080688	1.000000	-0.000071	0.000046	-0.000023
50603	NaN	9.892084	-0.379067	-0.774081	-0.080020	-0.062867	0.116354	1.000000	-0.000055	0.000034	-0.000029
50604	NaN	9.839604	-0.361210	-0.795908	-0.084240	-0.032822	0.065246	1.000000	-0.000058	0.000047	-0.000003
50605	NaN	9.846063	-0.383698	-0.800978	-0.061091	-0.038271	0.073087	1.000000	-0.000063	0.000055	-0.000017
50606	NaN	9.859170	-0.351864	-0.806154	-0.088921	-0.022846	0.085216	1.000000	-0.000036	0.000036	-0.000019
50607	NaN	9.832839	-0.381230	-0.819649	-0.053238	-0.019230	0.061454	1.000000	-0.000045	0.000050	-0.000015
50608	NaN	9.852703	-0.405191	-0.804351	-0.036828	-0.043373	0.080931	1.000000	-0.000033	0.000053	-0.000026
50609	NaN	9.820672	-0.367623	-0.779114	-0.076375	-0.051365	0.045268	1.000000	-0.000036	0.000061	-0.000032
50610	NaN	9.853554	-0.360191	-0.769761	-0.087972	-0.059396	0.076879	1.000000	-0.000043	0.000050	-0.000007
50611	NaN	9.833252	-0.379376	-0.815535	-0.051319	-0.022468	0.061457	1.000000	-0.000038	0.000052	-0.000017
50612	NaN	9.832720	-0.423104	-0.846974	0.001400	-0.008866	0.065505	1.000000	-0.000024	0.000052	0.000004
50613	NaN	9.853816	-0.359488	-0.766732	-0.086015	-0.062636	0.076877	1.000000	-0.000049	0.000058	-0.000021
50614	NaN	9.847144	-0.303423	-0.786254	-0.130080	-0.023799	0.069571	1.000000	-0.000035	0.000026	0.000005
50615	NaN	9.826815	-0.322838	-0.832506	-0.092516	0.012799	0.054170	1.000000	-0.000030	0.000028	-0.000005
50616	NaN	9.814452	-0.310404	-0.793513	-0.116822	-0.018331	0.037972	1.000000	-0.000049	0.000030	0.000017
50617	NaN	9.814479	-0.310800	-0.793025	-0.117053	-0.017553	0.037971	1.000000	-0.000043	0.000022	0.000031
50618	NaN	9.846306	-0.315087	-0.843167	-0.097448	0.025212	0.074164	1.000000	-0.000037	0.000016	0.000020
50619	NaN	9.839931	-0.292668	-0.836934	-0.119349	0.026762	0.066351	1.000000	-0.000051	0.000005	0.000023
50620	NaN	9.846667	-0.348836	-0.816411	-0.074882	-0.013488	0.073630	1.000000	-0.000055	0.000021	0.000018
50621	NaN	9.840310	-0.326386	-0.809961	-0.096666	-0.012535	0.065813	1.000000	-0.000046	0.000022	0.000023
50622	NaN	9.847317	-0.305720	-0.783197	-0.126059	-0.030628	0.069604	1.000000	-0.000035	0.000016	0.000028
50623	NaN	9.840344	-0.327272	-0.809187	-0.095138	-0.014493	0.065825	1.000000	-0.000047	0.000030	0.000024
50624	NaN	9.872892	-0.397529	-0.806267	-0.032809	-0.044728	0.100890	1.000000	-0.000046	0.000048	0.000010
50625	NaN	9.866599	-0.374875	-0.799128	-0.056560	-0.043219	0.093061	1.000000	-0.000041	0.000065	0.000010
50626	NaN	9.840578	-0.327676	-0.806177	-0.095559	-0.017455	0.065816	1.000000	-0.000035	0.000059	-0.000001
50627	NaN	9.867727	-0.363889	-0.737967	-0.086659	-0.095359	0.088446	1.000000	-0.000032	0.000061	-0.000018
50628	NaN	9.854481	-0.361944	-0.756962	-0.079801	-0.075658	0.076838	1.000000	-0.000047	0.000081	-0.000003
50629	NaN	9.829385	-0.303916	-0.705025	-0.149300	-0.101524	0.044982	1.000000	-0.000065	0.000061	0.000008
50630	NaN	9.841890	-0.316392	-0.742624	-0.124615	-0.071827	0.061203	1.000000	-0.000061	0.000030	0.000004
50631	NaN	9.827994	-0.358826	-0.794768	-0.065519	-0.038732	0.053623	1.000000	-0.000072	0.000049	0.000033
50632	NaN	9.827156	-0.369960	-0.852668	-0.034197	0.011396	0.058260	1.000000	-0.000076	0.000050	0.000019
50633	NaN	9.847536	-0.350758	-0.805028	-0.069256	-0.027559	0.073642	1.000000	-0.000052	0.000039	0.000011
50634	NaN	9.860650	-0.319286	-0.810101	-0.097088	-0.012254	0.085851	1.000000	-0.000036	0.000051	-0.000009
50635	NaN	9.853777	-0.340274	-0.835492	-0.066000	0.004677	0.082078	1.000000	-0.000032	0.000058	0.000007
50636	NaN	9.840819	-0.371550	-0.828623	-0.037760	-0.012083	0.069863	1.000000	-0.000051	0.000041	-0.000014
50637	NaN	9.853950	-0.339981	-0.833575	-0.065705	0.003893	0.082080	1.000000	-0.000025	0.000060	0.000005
50638	NaN	9.808807	-0.334463	-0.802406	-0.078239	-0.019829	0.034236	1.000000	-0.000019	0.000054	-0.000006
50639	NaN	9.815837	-0.313506	-0.774942	-0.106717	-0.039388	0.038025	1.000000	-0.000027	0.000050	0.000020
50640	NaN	9.867230	-0.309023	-0.836538	-0.092247	0.016308	0.094318	1.000000	-0.000015	0.000036	0.000024
50641	NaN	9.835633	-0.338905	-0.759219	-0.089505	-0.065971	0.057398	1.000000	-0.000019	0.000026	0.000032
50642	NaN	9.808981	-0.336158	-0.799561	-0.076059	-0.025810	0.034239	1.000000	-0.000016	0.000018	0.000039
50643	NaN	9.848130	-0.352586	-0.796915	-0.063738	-0.036520	0.073650	1.000000	-0.000028	0.000017	0.000026
50644	NaN	9.855093	-0.332237	-0.769984	-0.093083	-0.054700	0.077432	1.000000	-0.000023	0.000032	0.000050
50645	NaN	9.847908	-0.320824	-0.822033	-0.083832	-0.001471	0.074321	1.000000	-0.000033	0.000041	0.000021
50646	NaN	9.847658	-0.398307	-0.827377	-0.009694	-0.024217	0.077656	1.000000	-0.000031	0.000056	0.000038
50647	NaN	9.848293	-0.355033	-0.793816	-0.062933	-0.040159	0.073641	1.000000	-0.000034	0.000049	0.000022
50648	NaN	9.868375	-0.302895	-0.772216	-0.120320	-0.042364	0.089667	1.000000	-0.000037	0.000057	0.000016
50649	NaN	9.815996	-0.285721	-0.793827	-0.124592	-0.012347	0.038703	1.000000	-0.000026	0.000058	0.000029
50650	NaN	9.855762	-0.258549	-0.757864	-0.165644	-0.038027	0.074090	1.000000	-0.000041	0.000052	0.000057
50651	NaN	9.829647	-0.322427	-0.745269	-0.108669	-0.070149	0.049595	1.000000	-0.000046	0.000035	0.000057
50652	NaN	9.816692	-0.245095	-0.758601	-0.175787	-0.028440	0.034712	1.000000	-0.000031	0.000044	0.000086
50653	NaN	9.823087	-0.269164	-0.763890	-0.150809	-0.032068	0.042527	1.000000	-0.000024	0.000040	0.000051
50654	NaN	9.836413	-0.272222	-0.742802	-0.157191	-0.053274	0.054092	1.000000	-0.000045	0.000033	0.000089
50655	NaN	9.836413	-0.273675	-0.742264	-0.157658	-0.054744	0.054076	1.000000	-0.000018	0.000024	0.000064
50656	NaN	9.855874	-0.266296	-0.753707	-0.162547	-0.042524	0.074123	1.000000	-0.000026	0.000030	0.000067
50657	NaN	9.843564	-0.288296	-0.688569	-0.163889	-0.109751	0.057170	1.000000	-0.000017	0.000016	0.000063
50658	NaN	9.856069	-0.302035	-0.726520	-0.139231	-0.080061	0.073432	1.000000	-0.000032	0.000036	0.000077
50659	NaN	9.856269	-0.336438	-0.699572	-0.116193	-0.117325	0.072725	1.000000	-0.000039	0.000037	0.000055
50660	NaN	9.856106	-0.304226	-0.725103	-0.137433	-0.081643	0.073444	1.000000	-0.000034	0.000039	0.000046
50661	NaN	9.862302	-0.294755	-0.756695	-0.134477	-0.047644	0.081964	1.000000	-0.000024	0.000040	0.000051
50662	NaN	9.849355	-0.360463	-0.724060	-0.084742	-0.100767	0.068945	1.000000	-0.000047	0.000018	0.000072
50663	NaN	9.796940	-0.343983	-0.746414	-0.089025	-0.072517	0.017994	1.000000	-0.000013	0.000025	0.000054
50664	NaN	9.828916	-0.348992	-0.796370	-0.069471	-0.029871	0.054322	1.000000	-0.000030	0.000020	0.000075
50665	NaN	9.854728	-0.364299	-0.813874	-0.050819	-0.020077	0.082148	1.000000	-0.000041	0.000037	0.000048
50666	NaN	9.835280	-0.373773	-0.801217	-0.045497	-0.033770	0.062088	1.000000	-0.000034	0.000039	0.000046
50667	NaN	9.808859	-0.404334	-0.815178	-0.011052	-0.030432	0.038235	1.000000	-0.000013	0.000025	0.000054
50668	NaN	9.828976	-0.352794	-0.793950	-0.068406	-0.032742	0.054320	1.000000	-0.000028	0.000032	0.000035
50669	NaN	9.855559	-0.357289	-0.752607	-0.080361	-0.074438	0.077415	1.000000	-0.000018	0.000023	0.000064
50670	NaN	9.861110	-0.391900	-0.817114	-0.026192	-0.027242	0.089904	1.000000	-0.000018	0.000023	0.000064
50671	NaN	9.841619	-0.401811	-0.804648	-0.020427	-0.041979	0.069833	1.000000	-0.000049	0.000033	0.000074
50672	NaN	9.847819	-0.392506	-0.836462	-0.018742	-0.009304	0.078361	1.000000	-0.000032	0.000023	0.000044
50673	NaN	9.842268	-0.360014	-0.770981	-0.072477	-0.057140	0.065862	1.000000	-0.000023	0.000032	0.000050
50674	NaN	9.854811	-0.373255	-0.808797	-0.047833	-0.027447	0.082146	1.000000	-0.000018	0.000034	0.000041
50675	NaN	9.835339	-0.382621	-0.796301	-0.040658	-0.040914	0.062082	1.000000	-0.000017	0.000026	0.000040
50676	NaN	9.815859	-0.391975	-0.783883	-0.035331	-0.054589	0.042006	1.000000	-0.000017	0.000026	0.000040
50677	NaN	9.848632	-0.386011	-0.774922	-0.048428	-0.063384	0.073601	1.000000	-0.000022	0.000024	0.000049
50678	NaN	9.842330	-0.363987	-0.768315	-0.071161	-0.061154	0.065848	1.000000	-0.000012	0.000027	0.000030
50679	NaN	9.842338	-0.364815	-0.767822	-0.071024	-0.061912	0.065844	1.000000	-0.000020	0.000024	0.000056
50680	NaN	9.848558	-0.355323	-0.799755	-0.069349	-0.029242	0.074390	1.000000	-0.000016	0.000018	0.000039
50681	NaN	9.842324	-0.366538	-0.767178	-0.070439	-0.063076	0.065841	1.000000	-0.000020	0.000008	0.000047
50682	NaN	9.848609	-0.390137	-0.773140	-0.047254	-0.066803	0.073584	1.000000	-0.000022	0.000009	0.000040
50683	NaN	9.829087	-0.399419	-0.761178	-0.041918	-0.079652	0.053506	1.000000	-0.000038	-0.000002	0.000035
50684	NaN	9.848495	-0.358288	-0.799207	-0.068303	-0.031083	0.074392	1.000000	-0.000001	0.000013	0.000034
50685	NaN	9.810082	-0.299247	-0.768825	-0.131857	-0.037437	0.031070	1.000000	-0.000029	-0.000000	0.000041
50686	NaN	9.842157	-0.337038	-0.792915	-0.090813	-0.031230	0.066641	1.000000	-0.000020	0.000008	0.000047
50687	NaN	9.835221	-0.391962	-0.793205	-0.039683	-0.051274	0.062037	1.000000	-0.000006	-0.000004	0.000034
50688	NaN	9.861660	-0.363225	-0.778693	-0.074064	-0.056663	0.085895	1.000000	-0.000009	-0.000006	0.000050
50689	NaN	9.809295	-0.346363	-0.801422	-0.077118	-0.027172	0.035044	1.000000	0.000004	0.000012	0.000048
50690	NaN	9.874813	-0.333802	-0.784365	-0.100155	-0.043165	0.098251	1.000000	-0.000009	-0.000006	0.000050
50691	NaN	9.848299	-0.364305	-0.798906	-0.064149	-0.038303	0.074394	1.000000	0.000011	0.000014	0.000047
50692	NaN	9.842028	-0.375595	-0.766595	-0.065345	-0.072471	0.065811	1.000000	-0.000017	-0.000015	0.000044
50693	NaN	9.836368	-0.276839	-0.754043	-0.161457	-0.048259	0.054985	1.000000	0.000013	0.000014	0.000054
50694	NaN	9.809844	-0.307490	-0.768603	-0.126638	-0.044352	0.031110	1.000000	0.000026	-0.000009	0.000056
50695	NaN	9.835616	-0.356061	-0.760618	-0.086409	-0.070101	0.058091	1.000000	0.000011	-0.000012	0.000060
50696	NaN	9.855060	-0.348670	-0.772814	-0.091274	-0.057959	0.078184	1.000000	0.000020	-0.000018	0.000057
50697	NaN	9.855001	-0.349919	-0.773001	-0.089210	-0.059139	0.078196	1.000000	0.000059	-0.000004	0.000063
50698	NaN	9.841703	-0.382397	-0.767410	-0.060904	-0.075738	0.065815	1.000000	0.000040	-0.000021	0.000043
50699	NaN	9.868923	-0.343043	-0.694322	-0.124867	-0.131754	0.084911	1.000000	0.000004	-0.000018	0.000030
50700	NaN	9.842350	-0.340062	-0.735253	-0.111612	-0.091457	0.061890	1.000000	0.000050	0.000005	0.000035
50701	NaN	9.829058	-0.338991	-0.755610	-0.103733	-0.071573	0.050393	1.000000	-0.000029	-0.000000	0.000041
50702	NaN	9.848548	-0.364370	-0.741523	-0.087013	-0.095804	0.069608	1.000000	-0.000001	-0.000020	0.000039
50703	NaN	9.840741	-0.429591	-0.801027	-0.004085	-0.063150	0.069740	1.000000	-0.000026	-0.000014	0.000014
50704	NaN	9.847702	-0.409001	-0.774953	-0.033313	-0.081473	0.073531	1.000000	-0.000019	-0.000030	0.000027
50705	NaN	9.854632	-0.355398	-0.775201	-0.082686	-0.064064	0.078222	1.000000	0.000005	-0.000026	0.000029
50706	NaN	9.815515	-0.340065	-0.778194	-0.093832	-0.054209	0.038903	1.000000	-0.000004	-0.000037	0.000046
50707	NaN	9.860724	-0.379846	-0.782604	-0.059577	-0.068580	0.085918	1.000000	-0.000006	-0.000029	0.000047
50708	NaN	9.827866	-0.420732	-0.765448	-0.026164	-0.098018	0.053395	1.000000	-0.000036	-0.000027	0.000056
50709	NaN	9.854311	-0.358906	-0.777662	-0.080983	-0.067211	0.078215	1.000000	0.000015	-0.000033	0.000033
50710	NaN	9.855030	-0.315997	-0.745506	-0.133174	-0.082617	0.074308	1.000000	0.000017	-0.000018	0.000050
50711	NaN	9.835458	-0.325459	-0.733977	-0.127321	-0.095672	0.054202	1.000000	-0.000016	-0.000023	0.000043
50712	NaN	9.847867	-0.338876	-0.772849	-0.102698	-0.065960	0.070516	1.000000	-0.000027	-0.000018	0.000063
50713	NaN	9.860292	-0.385452	-0.785308	-0.056298	-0.073073	0.085905	1.000000	0.000004	-0.000003	0.000039
50714	NaN	9.867314	-0.398319	-0.732547	-0.063904	-0.127772	0.088765	1.000000	-0.000002	0.000005	0.000025
50715	NaN	9.866524	-0.375972	-0.817237	-0.053801	-0.040303	0.094533	1.000000	0.000003	0.000033	0.000002
50716	NaN	9.860346	-0.353171	-0.810412	-0.076531	-0.038115	0.086838	1.000000	-0.000047	0.000040	0.000001
50717	NaN	9.853374	-0.373782	-0.836273	-0.046608	-0.020277	0.083042	1.000000	-0.000030	0.000030	-0.000029
50718	NaN	9.847198	-0.383701	-0.803381	-0.047740	-0.054426	0.074411	1.000000	-0.000025	0.000029	-0.000014
50719	NaN	9.841014	-0.360710	-0.796674	-0.070075	-0.052099	0.066722	1.000000	-0.000046	0.000033	0.000000
50720	NaN	9.821538	-0.369361	-0.784185	-0.064733	-0.065699	0.046596	1.000000	-0.000056	0.000029	0.000019
50721	NaN	9.814546	-0.357341	-0.836417	-0.055211	-0.012245	0.043752	1.000000	-0.000073	0.000027	0.000015
50722	NaN	9.834075	-0.382374	-0.821736	-0.038432	-0.036474	0.062923	1.000000	-0.000058	0.000019	0.000035
50723	NaN	9.841152	-0.328533	-0.820867	-0.090035	-0.018394	0.067676	1.000000	-0.000061	0.000038	0.000005
50724	NaN	9.873976	-0.355103	-0.785548	-0.079719	-0.063181	0.098329	1.000000	-0.000051	0.000031	0.000009
50725	NaN	9.834987	-0.338968	-0.787440	-0.091161	-0.053320	0.059029	1.000000	-0.000029	0.000020	-0.000006
50726	NaN	9.835811	-0.328364	-0.727931	-0.121726	-0.105088	0.054177	1.000000	-0.000048	0.000048	0.000002
50727	NaN	9.842125	-0.317985	-0.759501	-0.119394	-0.072759	0.062830	1.000000	-0.000051	0.000031	0.000009
50728	NaN	9.842158	-0.318160	-0.759005	-0.119139	-0.073509	0.062827	1.000000	-0.000048	0.000023	0.000016
50729	NaN	9.842174	-0.318465	-0.758666	-0.119304	-0.074215	0.062820	1.000000	-0.000045	0.000015	0.000022
50730	NaN	9.835160	-0.339736	-0.784949	-0.089609	-0.057334	0.059021	1.000000	-0.000037	0.000016	0.000020
50731	NaN	9.828140	-0.361152	-0.811241	-0.059827	-0.040133	0.055225	1.000000	-0.000040	0.000014	0.000037
50732	NaN	9.848458	-0.309538	-0.790147	-0.117095	-0.042753	0.071479	1.000000	-0.000026	0.000017	0.000033
50733	NaN	9.843000	-0.276817	-0.724637	-0.170476	-0.091804	0.058933	1.000000	-0.000023	0.000034	0.000026
50734	NaN	9.855524	-0.289904	-0.762568	-0.145876	-0.062089	0.075274	1.000000	-0.000037	0.000021	0.000053
50735	NaN	9.842282	-0.288850	-0.782489	-0.139302	-0.041943	0.063804	1.000000	-0.000035	0.000031	0.000037
50736	NaN	9.848482	-0.345490	-0.762006	-0.094422	-0.081937	0.070479	1.000000	-0.000051	0.000021	0.000033
50737	NaN	9.843066	-0.279584	-0.722673	-0.169221	-0.095041	0.058924	1.000000	-0.000012	0.000027	0.000030
50738	NaN	9.849364	-0.269739	-0.754552	-0.167621	-0.062404	0.067600	1.000000	-0.000026	0.000017	0.000033
50739	NaN	9.856397	-0.249632	-0.727605	-0.195748	-0.080805	0.071413	1.000000	-0.000030	0.000023	0.000051
50740	NaN	9.856336	-0.283805	-0.701090	-0.173840	-0.117869	0.070395	1.000000	-0.000021	0.000016	0.000048
50741	NaN	9.855598	-0.295176	-0.759584	-0.141762	-0.066806	0.075303	1.000000	-0.000022	0.000024	0.000049
50742	NaN	9.861830	-0.318750	-0.765278	-0.118508	-0.070475	0.082965	1.000000	-0.000027	0.000025	0.000034
50743	NaN	9.862595	-0.308926	-0.705730	-0.149528	-0.122514	0.078061	1.000000	-0.000046	0.000046	0.000034
50744	NaN	9.868210	-0.309336	-0.796095	-0.117175	-0.038830	0.091645	1.000000	-0.000043	0.000040	0.000016
50745	NaN	9.835384	-0.349465	-0.777840	-0.082122	-0.067134	0.059024	1.000000	-0.000049	0.000031	0.000017
50746	NaN	9.835418	-0.349735	-0.777289	-0.081863	-0.067881	0.059021	1.000000	-0.000056	0.000029	0.000019
50747	NaN	9.834733	-0.360531	-0.835581	-0.050011	-0.016420	0.063921	1.000000	-0.000062	0.000035	0.000029
50748	NaN	9.815203	-0.369739	-0.823207	-0.044668	-0.029971	0.043767	1.000000	-0.000046	0.000020	0.000047
50749	NaN	9.841669	-0.374456	-0.782111	-0.057432	-0.071829	0.066680	1.000000	-0.000060	0.000009	0.000050
50750	NaN	9.795612	-0.380099	-0.811010	-0.039250	-0.044213	0.023609	1.000000	-0.000049	0.000003	0.000055
50751	NaN	9.860322	-0.411838	-0.826607	-0.008150	-0.045802	0.090680	1.000000	-0.000049	0.000008	0.000087
50752	NaN	9.834615	-0.365946	-0.834618	-0.047479	-0.020144	0.063926	1.000000	-0.000041	0.000001	0.000084
50753	NaN	9.802610	-0.330430	-0.810316	-0.087640	-0.028426	0.028474	1.000000	-0.000044	0.000010	0.000078
50754	NaN	9.835357	-0.325362	-0.801677	-0.098869	-0.036966	0.060086	1.000000	-0.000041	0.000001	0.000084
50755	NaN	9.842343	-0.306261	-0.775074	-0.128338	-0.055800	0.063884	1.000000	-0.000036	0.000001	0.000099
50756	NaN	9.829055	-0.306095	-0.795452	-0.121675	-0.035958	0.052437	1.000000	-0.000017	0.000005	0.000086
50757	NaN	9.861803	-0.301276	-0.786817	-0.131788	-0.045250	0.084059	1.000000	-0.000061	0.000005	0.000099
50758	NaN	9.867925	-0.325849	-0.793039	-0.108516	-0.048901	0.091699	1.000000	-0.000030	-0.000005	0.000089
50759	NaN	9.842150	-0.313254	-0.774728	-0.125250	-0.059484	0.063902	1.000000	-0.000037	0.000034	0.000087
50760	NaN	9.828910	-0.312768	-0.794652	-0.118596	-0.039637	0.052460	1.000000	-0.000040	0.000019	0.000070
50761	NaN	9.867154	-0.340682	-0.850671	-0.075801	-0.000488	0.096636	1.000000	-0.000042	0.000035	0.000072
50762	NaN	9.821851	-0.336192	-0.820202	-0.088366	-0.023904	0.048658	1.000000	-0.000050	0.000026	0.000065
50763	NaN	9.842138	-0.318842	-0.772600	-0.122486	-0.062976	0.063915	1.000000	-0.000035	0.000034	0.000094
50764	NaN	9.835041	-0.341198	-0.798973	-0.092829	-0.046008	0.060107	1.000000	-0.000044	-0.000006	0.000069
50765	NaN	9.828624	-0.353427	-0.766779	-0.094151	-0.079700	0.051363	1.000000	-0.000032	0.000000	0.000114
50766	NaN	9.848125	-0.347091	-0.778620	-0.098969	-0.067684	0.071538	1.000000	-0.000057	0.000004	0.000114
50767	NaN	9.842622	-0.316159	-0.713597	-0.150693	-0.115741	0.059003	1.000000	-0.000038	-0.000009	0.000115
50768	NaN	9.848888	-0.307850	-0.746134	-0.149135	-0.083117	0.067744	1.000000	-0.000030	-0.000016	0.000112
50769	NaN	9.867203	-0.378597	-0.764949	-0.080237	-0.092372	0.090605	1.000000	-0.000035	-0.000002	0.000131
50770	NaN	9.841629	-0.333326	-0.772966	-0.119626	-0.066751	0.063925	1.000000	-0.000017	0.000003	0.000110
50771	NaN	9.835441	-0.312515	-0.766707	-0.143057	-0.064379	0.056294	1.000000	-0.000022	0.000004	0.000095
50772	NaN	9.822167	-0.312476	-0.786971	-0.136422	-0.044517	0.044865	1.000000	-0.000004	0.000013	0.000107
50773	NaN	9.835344	-0.316752	-0.766213	-0.141584	-0.065756	0.056306	1.000000	-0.000000	0.000021	0.000123
50774	NaN	9.802454	-0.325739	-0.774697	-0.129866	-0.058647	0.024693	1.000000	0.000008	-0.000011	0.000134
50775	NaN	9.820925	-0.363530	-0.819635	-0.082241	-0.031150	0.048691	1.000000	-0.000006	-0.000014	0.000138
50776	NaN	9.814709	-0.343388	-0.813674	-0.104988	-0.029020	0.041074	1.000000	0.000008	-0.000011	0.000134
50777	NaN	9.859597	-0.385238	-0.817750	-0.070565	-0.042800	0.087917	1.000000	0.000001	-0.000013	0.000136
50778	NaN	9.885173	-0.402161	-0.835916	-0.052364	-0.033672	0.115720	1.000000	-0.000013	0.000002	0.000125
50779	NaN	9.865471	-0.412912	-0.824124	-0.046678	-0.046156	0.095536	1.000000	-0.000024	-0.000006	0.000111
50780	NaN	9.859008	-0.425477	-0.791733	-0.047679	-0.080272	0.086767	1.000000	-0.000014	0.000020	0.000103
50781	NaN	9.879658	-0.375479	-0.770115	-0.104839	-0.082302	0.103155	1.000000	-0.000017	0.000044	0.000106
50782	NaN	9.858182	-0.439715	-0.849360	-0.016446	-0.029823	0.091724	1.000000	-0.000034	0.000026	0.000093
50783	NaN	9.845349	-0.462657	-0.784230	-0.017542	-0.095526	0.074199	1.000000	-0.000046	0.000038	0.000114
50784	NaN	9.832446	-0.429248	-0.830005	-0.032652	-0.039391	0.063928	1.000000	-0.000021	0.000036	0.000090
50785	NaN	9.832414	-0.431138	-0.829403	-0.033076	-0.039233	0.063927	1.000000	-0.000022	0.000027	0.000106
50786	NaN	9.826328	-0.410295	-0.822605	-0.055825	-0.037084	0.056317	1.000000	-0.000026	0.000035	0.000099
50787	NaN	9.819149	-0.432897	-0.848510	-0.025703	-0.019560	0.052505	1.000000	-0.000029	0.000043	0.000093
50788	NaN	9.826286	-0.413908	-0.821291	-0.054808	-0.038031	0.056319	1.000000	-0.000033	0.000018	0.000092
50789	NaN	9.845884	-0.407175	-0.832623	-0.059235	-0.025088	0.076517	1.000000	-0.000030	0.000035	0.000085
50790	NaN	9.839447	-0.419282	-0.799690	-0.060244	-0.059188	0.067742	1.000000	-0.000030	0.000035	0.000085
50791	NaN	9.826224	-0.418821	-0.819543	-0.052228	-0.038280	0.056332	1.000000	-0.000036	0.000026	0.000086
50792	NaN	9.859029	-0.414168	-0.810422	-0.063376	-0.046884	0.087947	1.000000	-0.000020	0.000029	0.000089
50793	NaN	9.839780	-0.391038	-0.824069	-0.079863	-0.024146	0.068927	1.000000	-0.000010	0.000030	0.000094
50794	NaN	9.814093	-0.378542	-0.805466	-0.097540	-0.034739	0.041132	1.000000	-0.000015	0.000028	0.000104
50795	NaN	9.794407	-0.389079	-0.793171	-0.091327	-0.047448	0.020945	1.000000	-0.000003	0.000021	0.000116
50796	NaN	9.833632	-0.374596	-0.816458	-0.101192	-0.022691	0.061343	1.000000	-0.000024	0.000017	0.000122
50797	NaN	9.840745	-0.356258	-0.789626	-0.128614	-0.040708	0.065191	1.000000	0.000027	0.000001	0.000122
50798	NaN	9.834662	-0.336178	-0.783227	-0.151360	-0.038562	0.057603	1.000000	-0.000006	0.000016	0.000157
50799	NaN	9.813700	-0.391378	-0.804115	-0.093353	-0.037537	0.041163	1.000000	0.000010	0.000001	0.000175
50800	NaN	9.840427	-0.365574	-0.789322	-0.127502	-0.043292	0.065195	1.000000	0.000006	-0.000006	0.000159
50801	NaN	9.833840	-0.379248	-0.757075	-0.129084	-0.076797	0.056398	1.000000	0.000022	0.000004	0.000164
50802	NaN	9.834979	-0.338919	-0.724084	-0.181193	-0.092412	0.052636	1.000000	0.000029	0.000005	0.000162
50803	NaN	9.853781	-0.343863	-0.794823	-0.153224	-0.028196	0.077849	1.000000	-0.000005	-0.000007	0.000146
50804	NaN	9.866874	-0.348998	-0.774252	-0.159270	-0.049557	0.089264	1.000000	0.000018	0.000020	0.000158
50805	NaN	9.866791	-0.352115	-0.773891	-0.156913	-0.049883	0.089300	1.000000	-0.000046	0.000018	0.000160
50806	NaN	9.878054	-0.433985	-0.759881	-0.088789	-0.092576	0.103222	1.000000	-0.000006	0.000027	0.000133
50807	NaN	9.870736	-0.457367	-0.785902	-0.058483	-0.074728	0.099389	1.000000	-0.000023	0.000039	0.000139
50808	NaN	9.859399	-0.381052	-0.798549	-0.126029	-0.033486	0.085475	1.000000	-0.000010	0.000058	0.000138
50809	NaN	9.812766	-0.421061	-0.800514	-0.086997	-0.041676	0.041204	1.000000	-0.000002	0.000051	0.000135
50810	NaN	9.837738	-0.471636	-0.791511	-0.046963	-0.068768	0.067752	1.000000	0.000000	0.000051	0.000142
50811	NaN	9.831039	-0.461649	-0.843177	-0.039562	-0.014665	0.065147	1.000000	0.000043	0.000052	0.000122
50812	NaN	9.790891	-0.490910	-0.877449	0.001454	0.010306	0.029687	1.000000	0.000026	0.000049	0.000118
50813	NaN	9.856601	-0.481128	-0.858894	-0.019648	-0.005610	0.092935	1.000000	0.000017	0.000079	0.000132
50814	NaN	9.836906	-0.491778	-0.845719	-0.014303	-0.019046	0.072718	1.000000	0.000060	0.000056	0.000101
50815	NaN	9.784344	-0.508393	-0.841278	0.003084	-0.023484	0.020879	1.000000	0.000046	0.000069	0.000115
50816	NaN	9.837564	-0.463052	-0.869120	-0.034822	0.016834	0.073968	1.000000	0.000063	0.000064	0.000117
50817	NaN	9.848663	-0.544455	-0.854189	0.034009	-0.025811	0.087838	1.000000	0.000086	0.000060	0.000110
50818	NaN	9.869064	-0.528238	-0.805824	-0.001354	-0.064945	0.103087	1.000000	0.000079	0.000058	0.000112
50819	NaN	9.865263	-0.431004	-0.791387	-0.098265	-0.041215	0.093074	1.000000	0.000080	0.000081	0.000130
50820	NaN	9.840373	-0.408682	-0.713071	-0.146555	-0.102920	0.060324	1.000000	0.000074	0.000057	0.000121
50821	NaN	9.838942	-0.454834	-0.744715	-0.092678	-0.088122	0.064048	1.000000	0.000044	0.000059	0.000130
50822	NaN	9.860055	-0.405726	-0.722418	-0.149813	-0.091048	0.080565	1.000000	0.000038	0.000065	0.000141
50823	NaN	9.852769	-0.429063	-0.747676	-0.118797	-0.073458	0.076734	1.000000	0.000062	0.000071	0.000118
50824	NaN	9.860061	-0.410620	-0.719571	-0.147835	-0.091961	0.080587	1.000000	0.000019	0.000073	0.000107
50825	NaN	9.860161	-0.389907	-0.803138	-0.137727	-0.004765	0.086850	1.000000	0.000038	0.000068	0.000116
50826	NaN	9.847740	-0.379572	-0.763202	-0.161717	-0.035976	0.070484	1.000000	0.000023	0.000083	0.000098
50827	NaN	9.833890	-0.412617	-0.755911	-0.132704	-0.051316	0.057814	1.000000	-0.000002	0.000087	0.000098
50828	NaN	9.828113	-0.391528	-0.747980	-0.155445	-0.049167	0.050274	1.000000	0.000017	0.000091	0.000084
50829	NaN	9.854406	-0.397827	-0.705084	-0.166263	-0.091356	0.073097	1.000000	-0.000025	0.000106	0.000114
50830	NaN	9.847172	-0.420658	-0.729908	-0.136624	-0.074267	0.069232	1.000000	-0.000031	0.000082	0.000105
50831	NaN	9.846359	-0.456010	-0.702391	-0.113912	-0.110187	0.067948	1.000000	-0.000060	0.000068	0.000112
50832	NaN	9.807655	-0.441397	-0.703748	-0.125325	-0.100084	0.028780	1.000000	-0.000062	0.000058	0.000128
50833	NaN	9.841338	-0.404570	-0.720031	-0.158650	-0.071983	0.061709	1.000000	-0.000076	0.000056	0.000132
50834	NaN	9.795096	-0.433836	-0.663260	-0.149507	-0.131439	0.012404	1.000000	-0.000084	0.000054	0.000134
50835	NaN	9.834578	-0.420040	-0.686020	-0.160071	-0.104258	0.052883	1.000000	-0.000125	0.000031	0.000143
50836	NaN	9.819903	-0.464240	-0.738863	-0.101091	-0.069380	0.045147	1.000000	-0.000112	0.000031	0.000164
50837	NaN	9.838673	-0.492282	-0.724168	-0.084383	-0.092811	0.064079	1.000000	-0.000130	0.000021	0.000152
50838	NaN	9.834279	-0.428538	-0.685039	-0.159509	-0.105570	0.052878	1.000000	-0.000097	-0.000005	0.000140
50839	NaN	9.857596	-0.499540	-0.794660	-0.057088	-0.030246	0.089284	1.000000	-0.000144	0.000029	0.000132
50840	NaN	9.845042	-0.489361	-0.755781	-0.081085	-0.061435	0.072917	1.000000	-0.000100	0.000029	0.000120
50841	NaN	9.835505	-0.565702	-0.873835	0.031508	0.022702	0.077674	1.000000	-0.000106	0.000030	0.000097
50842	NaN	9.882020	-0.553650	-0.785050	-0.016385	-0.057750	0.115733	1.000000	-0.000076	0.000043	0.000098
50843	NaN	9.811079	-0.534156	-0.736638	-0.045861	-0.089369	0.039985	1.000000	-0.000029	0.000043	0.000093
50844	NaN	9.816191	-0.568823	-0.801188	0.008090	-0.041779	0.052466	1.000000	-0.000063	0.000023	0.000076
50845	NaN	9.829214	-0.572565	-0.780304	0.001817	-0.062113	0.063865	1.000000	-0.000053	0.000024	0.000082
50846	NaN	9.837452	-0.520191	-0.779233	-0.049001	-0.044371	0.069058	1.000000	-0.000043	0.000017	0.000086
50847	NaN	9.841567	-0.588117	-0.817987	0.027343	-0.032515	0.080220	1.000000	-0.000064	0.000031	0.000077
50848	NaN	9.848864	-0.568833	-0.790700	-0.001687	-0.050992	0.084095	1.000000	-0.000051	0.000034	0.000066
50849	NaN	9.822713	-0.565390	-0.830998	0.011971	-0.009704	0.061303	1.000000	-0.000054	0.000042	0.000060
50850	NaN	9.851447	-0.494222	-0.782249	-0.074462	-0.030416	0.081792	1.000000	-0.000047	0.000043	0.000058
50851	NaN	9.812260	-0.488318	-0.842956	-0.055295	0.031395	0.047609	1.000000	-0.000064	0.000041	0.000054
50852	NaN	9.832676	-0.471106	-0.794854	-0.090605	-0.007742	0.062888	1.000000	-0.000071	0.000055	0.000066
50853	NaN	9.819194	-0.493178	-0.729480	-0.091872	-0.073721	0.045206	1.000000	-0.000055	0.000050	0.000061
50854	NaN	9.851509	-0.498571	-0.778701	-0.072260	-0.031230	0.081805	1.000000	-0.000055	0.000050	0.000061
50855	NaN	9.818625	-0.505446	-0.786937	-0.059706	-0.022477	0.050176	1.000000	-0.000043	0.000012	0.000054
50856	NaN	9.852051	-0.490489	-0.718802	-0.101295	-0.082258	0.076859	1.000000	-0.000023	0.000032	0.000050
50857	NaN	9.843113	-0.555438	-0.777888	-0.018877	-0.049578	0.076584	1.000000	-0.000041	0.000037	0.000047
50858	NaN	9.837398	-0.533313	-0.771010	-0.041621	-0.047385	0.069078	1.000000	-0.000035	0.000031	0.000037
50859	NaN	9.882305	-0.563628	-0.715045	-0.036901	-0.112190	0.110769	1.000000	-0.000020	0.000044	0.000010
50860	NaN	9.831263	-0.534397	-0.678270	-0.072683	-0.132506	0.055266	1.000000	0.000006	0.000047	0.000019
50861	NaN	9.843822	-0.547137	-0.715606	-0.046929	-0.101376	0.071633	1.000000	-0.000030	0.000066	0.000015
50862	NaN	9.865311	-0.495843	-0.693266	-0.104008	-0.104273	0.088279	1.000000	0.000007	0.000040	0.000018
50863	NaN	9.845515	-0.504462	-0.680753	-0.098204	-0.116761	0.068041	1.000000	-0.000007	0.000044	0.000030
50864	NaN	9.832496	-0.502588	-0.700591	-0.091609	-0.096776	0.056641	1.000000	-0.000031	0.000025	0.000019
50865	NaN	9.830913	-0.546450	-0.733033	-0.038927	-0.081791	0.060235	1.000000	-0.000022	0.000034	0.000026
50866	NaN	9.825235	-0.523859	-0.726021	-0.061670	-0.079586	0.052739	1.000000	-0.000013	0.000045	0.000008
50867	NaN	9.864973	-0.507397	-0.748547	-0.071004	-0.055379	0.093238	1.000000	-0.000013	0.000041	-0.000024
50868	NaN	9.840574	-0.459054	-0.755691	-0.110535	-0.029649	0.066867	1.000000	0.000002	0.000048	0.000004
50869	NaN	9.826010	-0.500175	-0.808426	-0.050448	0.006494	0.059070	1.000000	-0.000006	0.000032	-0.000003
50870	NaN	9.833393	-0.479511	-0.780837	-0.079465	-0.011965	0.062979	1.000000	-0.000018	0.000054	-0.000006
50871	NaN	9.841848	-0.425678	-0.779174	-0.128951	0.006981	0.068285	1.000000	0.000008	0.000032	0.000017
50872	NaN	9.809009	-0.431926	-0.787421	-0.117374	0.014290	0.036641	1.000000	-0.000005	0.000029	0.000028
50873	NaN	9.807430	-0.475968	-0.820014	-0.063991	0.029820	0.040214	1.000000	-0.000033	0.000016	0.000035
50874	NaN	9.816332	-0.412699	-0.759736	-0.145404	-0.003537	0.040573	1.000000	0.000006	0.000037	0.000042
50875	NaN	9.810603	-0.390837	-0.753085	-0.168034	-0.000907	0.033103	1.000000	0.000009	0.000003	0.000062
50876	NaN	9.810063	-0.402326	-0.811921	-0.137099	0.049559	0.038057	1.000000	-0.000042	0.000009	0.000085
50877	NaN	9.843372	-0.388023	-0.743990	-0.178601	-0.009551	0.064765	1.000000	-0.000012	0.000007	0.000076
50878	NaN	9.868873	-0.404600	-0.761640	-0.160202	-0.000415	0.092503	1.000000	-0.000005	0.000021	0.000108
50879	NaN	9.854669	-0.437557	-0.755933	-0.131356	-0.016159	0.079727	1.000000	0.000007	0.000009	0.000087
50880	NaN	9.876084	-0.387905	-0.734275	-0.188412	-0.019057	0.096440	1.000000	0.000002	0.000022	0.000106
50881	NaN	9.869213	-0.400330	-0.701556	-0.189560	-0.051797	0.087575	1.000000	0.000004	0.000032	0.000090
50882	NaN	9.890683	-0.350639	-0.679477	-0.246615	-0.054687	0.104290	1.000000	-0.000027	0.000042	0.000100
50883	NaN	9.856144	-0.401737	-0.720675	-0.182683	-0.031840	0.076193	1.000000	-0.000018	0.000028	0.000096
50884	NaN	9.821594	-0.452889	-0.761792	-0.118719	-0.009612	0.048092	1.000000	-0.000018	0.000051	0.000107
50885	NaN	9.848781	-0.426114	-0.745697	-0.152208	-0.015173	0.072287	1.000000	-0.000032	0.000051	0.000086
50886	NaN	9.843099	-0.405034	-0.738508	-0.174954	-0.012954	0.064826	1.000000	-0.000003	0.000046	0.000102
50887	NaN	9.834089	-0.470805	-0.797425	-0.091735	0.020431	0.064458	1.000000	0.000016	0.000043	0.000080
50888	NaN	9.865746	-0.500282	-0.761744	-0.080880	-0.024438	0.094701	1.000000	-0.000003	0.000046	0.000102
50889	NaN	9.801621	-0.470542	-0.745663	-0.110170	-0.022725	0.027869	1.000000	0.000007	0.000037	0.000130
50890	NaN	9.799855	-0.516614	-0.778041	-0.057447	-0.008484	0.031399	1.000000	0.000010	0.000028	0.000137
50891	NaN	9.812750	-0.521874	-0.756895	-0.062989	-0.028853	0.042794	1.000000	0.000006	0.000034	0.000155
50892	NaN	9.838161	-0.539659	-0.774245	-0.044562	-0.019714	0.070516	1.000000	0.000013	0.000020	0.000143
50893	NaN	9.830687	-0.562833	-0.800646	-0.014298	-0.001195	0.066585	1.000000	0.000024	0.000016	0.000124
50894	NaN	9.843583	-0.567765	-0.779508	-0.020246	-0.022503	0.077975	1.000000	0.000006	0.000044	0.000131
50895	NaN	9.842236	-0.603470	-0.752801	0.002168	-0.058974	0.076550	1.000000	0.000055	0.000031	0.000100
50896	NaN	9.862057	-0.597548	-0.763675	-0.002462	-0.046943	0.096815	1.000000	0.000064	0.000040	0.000107
50897	NaN	9.860251	-0.643134	-0.795741	0.051426	-0.031250	0.100322	1.000000	0.000061	0.000048	0.000100
50898	NaN	9.868040	-0.614430	-0.708890	-0.008248	-0.100762	0.099327	1.000000	0.000070	0.000059	0.000083
50899	NaN	9.849432	-0.590732	-0.722002	-0.024429	-0.077409	0.080490	1.000000	0.000076	0.000053	0.000072
50900	NaN	9.836439	-0.590123	-0.741279	-0.017829	-0.057385	0.069097	1.000000	0.000074	0.000066	0.000098
50901	NaN	9.809583	-0.610384	-0.696238	-0.013147	-0.103256	0.039947	1.000000	0.000062	0.000050	0.000076
50902	NaN	9.855875	-0.595586	-0.809688	0.009281	0.005898	0.094303	1.000000	0.000039	0.000039	0.000073
50903	NaN	9.868835	-0.599587	-0.788085	0.003734	-0.014240	0.105693	1.000000	0.000045	0.000063	0.000082
50904	NaN	9.861492	-0.621560	-0.813410	0.033408	0.002885	0.101740	1.000000	0.000020	0.000078	0.000058
50905	NaN	9.870699	-0.558651	-0.752024	-0.046675	-0.028491	0.102217	1.000000	0.000025	0.000087	0.000050
50906	NaN	9.826293	-0.529631	-0.805751	-0.050588	0.035767	0.060607	1.000000	0.000012	0.000084	0.000061
50907	NaN	9.835085	-0.477137	-0.803404	-0.100105	0.053652	0.066033	1.000000	0.000003	0.000073	0.000079
50908	NaN	9.796636	-0.461451	-0.804910	-0.111645	0.063914	0.026944	1.000000	-0.000023	0.000052	0.000092
50909	NaN	9.808174	-0.499232	-0.757452	-0.096043	0.006249	0.036880	1.000000	-0.000038	0.000047	0.000120
50910	NaN	9.818292	-0.414572	-0.781714	-0.168531	0.060336	0.043770	1.000000	-0.000055	0.000049	0.000149
50911	NaN	9.831170	-0.419925	-0.760435	-0.174339	0.039606	0.055167	1.000000	-0.000033	0.000028	0.000157
50912	NaN	9.851388	-0.404970	-0.712716	-0.209615	0.000543	0.070524	1.000000	-0.000052	0.000016	0.000169
50913	NaN	9.825779	-0.393260	-0.694549	-0.226659	-0.008626	0.042846	1.000000	-0.000053	0.000023	0.000170
50914	NaN	9.811646	-0.417393	-0.630120	-0.229010	-0.075930	0.025069	1.000000	-0.000054	-0.000010	0.000175
50915	NaN	9.818502	-0.410429	-0.662353	-0.226915	-0.042767	0.033978	1.000000	-0.000047	0.000007	0.000183
50916	NaN	9.805810	-0.401690	-0.623772	-0.250999	-0.073824	0.017669	1.000000	-0.000024	0.000016	0.000209
50917	NaN	9.811171	-0.428691	-0.629933	-0.228020	-0.076842	0.025085	1.000000	-0.000022	-0.000008	0.000206
50918	NaN	9.798422	-0.420483	-0.591941	-0.252106	-0.107896	0.008773	1.000000	0.000039	-0.000033	0.000235
50919	NaN	9.816201	-0.460773	-0.637223	-0.203483	-0.080592	0.032528	1.000000	0.000019	-0.000038	0.000248
50920	NaN	9.835874	-0.457795	-0.649697	-0.208065	-0.068557	0.052814	1.000000	0.000030	-0.000052	0.000252
50921	NaN	9.886456	-0.492929	-0.686403	-0.171113	-0.048072	0.108228	1.000000	0.000015	-0.000055	0.000256
50922	NaN	9.868164	-0.462640	-0.642831	-0.218285	-0.076200	0.084507	1.000000	0.000004	-0.000051	0.000275
50923	NaN	9.854721	-0.608280	-0.710711	-0.062466	-0.064442	0.085928	1.000000	-0.000017	-0.000057	0.000224
50924	NaN	9.912710	-0.622384	-0.720581	-0.055146	-0.063316	0.145293	1.000000	-0.000004	-0.000039	0.000223
50925	NaN	9.919912	-0.606199	-0.694348	-0.083545	-0.080521	0.149280	1.000000	-0.000011	-0.000015	0.000211
50926	NaN	9.894250	-0.594811	-0.676977	-0.101376	-0.090887	0.121583	1.000000	-0.000037	-0.000030	0.000168
50927	NaN	9.902750	-0.687419	-0.722738	-0.001969	-0.081568	0.139834	1.000000	-0.000068	0.000006	0.000164
50928	NaN	9.842598	-0.713976	-0.687760	0.013080	-0.120190	0.078970	1.000000	-0.000065	0.000016	0.000148
50929	NaN	9.845709	-0.650038	-0.739354	-0.029813	-0.046948	0.081962	1.000000	-0.000076	0.000022	0.000144
50930	NaN	9.805086	-0.678543	-0.774686	0.011061	-0.021839	0.046302	1.000000	-0.000091	0.000028	0.000149
50931	NaN	9.796274	-0.592195	-0.729062	-0.086789	-0.030929	0.028081	1.000000	-0.000111	-0.000002	0.000176
50932	NaN	9.734574	-0.649165	-0.871364	0.020458	0.083636	-0.018036	1.000000	-0.000083	-0.000015	0.000183
50933	NaN	9.774297	-0.637092	-0.894955	0.011303	0.109614	0.022533	1.000000	-0.000134	-0.000009	0.000205
50934	NaN	9.735717	-0.623001	-0.898140	-0.000273	0.119941	-0.016536	1.000000	-0.000072	-0.000030	0.000186
50935	NaN	9.773148	-0.654681	-0.955366	0.043854	0.161333	0.027425	1.000000	-0.000071	-0.000058	0.000231
50936	NaN	9.770157	-0.582868	-0.858490	-0.062114	0.097876	0.011734	1.000000	-0.000041	-0.000079	0.000245
50937	NaN	9.769195	-0.597685	-0.918919	-0.030931	0.149024	0.016638	1.000000	-0.000015	-0.000068	0.000255
50938	NaN	9.828259	-0.712366	-0.942917	0.073632	0.125686	0.085293	1.000000	-0.000052	-0.000090	0.000255
50939	NaN	9.868908	-0.681728	-0.849946	0.002676	0.049388	0.116062	1.000000	-0.000031	-0.000078	0.000250
50940	NaN	9.869633	-0.785745	-0.864861	0.100210	0.024297	0.125340	1.000000	-0.000034	-0.000064	0.000188
50941	NaN	9.905759	-0.721117	-0.706203	-0.023506	-0.099720	0.143833	1.000000	-0.000031	-0.000057	0.000204
50942	NaN	9.841916	-0.691587	-0.691779	-0.053289	-0.099093	0.077080	1.000000	-0.000008	-0.000025	0.000160
50943	NaN	9.865728	-0.733428	-0.625556	-0.042864	-0.175573	0.098376	1.000000	-0.000028	-0.000045	0.000164
50944	NaN	9.878406	-0.739165	-0.605644	-0.048817	-0.196823	0.109760	1.000000	-0.000036	-0.000013	0.000153
50945	NaN	9.847014	-0.713821	-0.640869	-0.058160	-0.152355	0.079600	1.000000	-0.000066	-0.000025	0.000153
50946	NaN	9.852650	-0.729727	-0.588607	-0.065560	-0.206932	0.082087	1.000000	-0.000063	-0.000008	0.000145
50947	NaN	9.856403	-0.775240	-0.713147	0.020679	-0.107366	0.099240	1.000000	-0.000066	-0.000015	0.000129
50948	NaN	9.850964	-0.754818	-0.706958	-0.002054	-0.104980	0.091857	1.000000	-0.000035	0.000013	0.000140
50949	NaN	9.824004	-0.652424	-0.734529	-0.085155	-0.039060	0.059874	1.000000	-0.000008	-0.000015	0.000137
50950	NaN	9.832782	-0.611248	-0.792606	-0.104970	0.029984	0.070305	1.000000	-0.000045	0.000012	0.000134
50951	NaN	9.840514	-0.703215	-0.838282	-0.006221	0.038693	0.088394	1.000000	-0.000041	-0.000004	0.000140
50952	NaN	9.816334	-0.667088	-0.905122	-0.014886	0.115716	0.067143	1.000000	-0.000021	0.000015	0.000136
50953	NaN	9.833564	-0.595757	-0.877059	-0.094825	0.116829	0.076726	1.000000	0.000021	0.000013	0.000140
50954	NaN	9.817201	-0.539471	-0.916825	-0.132877	0.176186	0.059512	1.000000	0.000006	0.000018	0.000145
50955	NaN	9.827429	-0.588492	-0.929132	-0.085496	0.170564	0.074252	1.000000	0.000011	0.000009	0.000159
50956	NaN	9.789080	-0.464253	-0.858978	-0.225135	0.154585	0.021177	1.000000	-0.000028	0.000016	0.000194
50957	NaN	9.774688	-0.488808	-0.794499	-0.226971	0.087349	0.003398	1.000000	-0.000003	0.000004	0.000194
50958	NaN	9.781595	-0.482485	-0.826741	-0.225153	0.120087	0.012320	1.000000	-0.000072	-0.000010	0.000228
50959	NaN	9.819613	-0.395488	-0.751945	-0.339234	0.083682	0.037417	1.000000	-0.000072	-0.000020	0.000251
50960	NaN	9.766794	-0.512749	-0.763340	-0.225765	0.053730	-0.005444	1.000000	-0.000059	-0.000028	0.000263
50961	NaN	9.758628	-0.538293	-0.791133	-0.195399	0.071755	-0.009467	1.000000	-0.000111	-0.000062	0.000290
50962	NaN	9.782389	-0.473267	-0.653023	-0.314144	-0.032741	-0.002194	1.000000	-0.000042	-0.000069	0.000302
50963	NaN	9.769068	-0.476311	-0.675060	-0.307679	-0.011687	-0.013583	1.000000	-0.000066	-0.000081	0.000299
50964	NaN	9.786649	-0.508115	-0.662876	-0.290559	-0.035923	0.005172	1.000000	-0.000085	-0.000118	0.000325
50965	NaN	9.771123	-0.545281	-0.660059	-0.262257	-0.051508	-0.007769	1.000000	-0.000076	-0.000128	0.000353
50966	NaN	9.831672	-0.618931	-0.652262	-0.210092	-0.089733	0.057373	1.000000	-0.000059	-0.000131	0.000324
50967	NaN	9.808121	-0.675711	-0.676778	-0.151572	-0.087193	0.040397	1.000000	-0.000017	-0.000169	0.000285
50968	NaN	9.858526	-0.702313	-0.656832	-0.145577	-0.119401	0.090835	1.000000	0.000025	-0.000146	0.000275
50969	NaN	9.842890	-0.738091	-0.654265	-0.116510	-0.134938	0.077891	1.000000	0.000048	-0.000139	0.000245
50970	NaN	9.827238	-0.773538	-0.651824	-0.088265	-0.151210	0.064923	1.000000	0.000090	-0.000165	0.000239
50971	NaN	9.889744	-0.812022	-0.670282	-0.056446	-0.152219	0.131625	1.000000	0.000075	-0.000149	0.000221
50972	NaN	9.861789	-0.933974	-0.642651	0.044324	-0.223564	0.111437	1.000000	0.000108	-0.000127	0.000206
50973	NaN	9.908256	-1.012080	-0.714148	0.134374	-0.189865	0.169984	1.000000	0.000096	-0.000132	0.000160
50974	NaN	9.915759	-0.995439	-0.689734	0.105326	-0.208057	0.174030	1.000000	0.000119	-0.000131	0.000186
50975	NaN	9.871343	-0.967534	-0.747136	0.101760	-0.142465	0.132517	1.000000	0.000144	-0.000125	0.000164
50976	NaN	9.855711	-1.001482	-0.743628	0.129996	-0.158741	0.119527	1.000000	0.000106	-0.000090	0.000162
50977	NaN	9.834193	-1.022136	-0.792407	0.166041	-0.119539	0.104074	1.000000	0.000119	-0.000087	0.000150
50978	NaN	9.843010	-0.981595	-0.851931	0.146424	-0.050422	0.114557	1.000000	0.000094	-0.000083	0.000150
50979	NaN	9.850145	-0.874578	-0.872163	0.050760	0.008175	0.114461	1.000000	0.000093	-0.000090	0.000141
50980	NaN	9.803667	-0.879330	-0.902917	0.068567	0.036211	0.071358	1.000000	0.000092	-0.000082	0.000142
50981	NaN	9.767468	-0.830733	-0.932786	0.037757	0.084302	0.033891	1.000000	0.000076	-0.000087	0.000170
50982	NaN	9.795822	-0.706854	-0.905862	-0.093205	0.103732	0.049306	1.000000	0.000070	-0.000081	0.000181
50983	NaN	9.789456	-0.697427	-0.960282	-0.084119	0.157603	0.046830	1.000000	0.000058	-0.000107	0.000182
50984	NaN	9.726103	-0.667189	-0.946687	-0.114081	0.158427	-0.019816	1.000000	0.000081	-0.000107	0.000207
50985	NaN	9.749028	-0.620628	-0.927467	-0.169981	0.156443	-0.002715	1.000000	0.000075	-0.000116	0.000208
50986	NaN	9.784988	-0.577064	-0.888083	-0.233247	0.133407	0.025782	1.000000	0.000073	-0.000133	0.000223
50987	NaN	9.766647	-0.555783	-0.904732	-0.249820	0.157335	0.007071	1.000000	0.000069	-0.000128	0.000240
50988	NaN	9.796992	-0.589293	-0.872752	-0.239063	0.112441	0.037196	1.000000	0.000030	-0.000149	0.000233
50989	NaN	9.778913	-0.657638	-0.844205	-0.188888	0.060167	0.022607	1.000000	0.000021	-0.000149	0.000228
50990	NaN	9.824526	-0.660508	-0.817838	-0.205967	0.031014	0.065727	1.000000	0.000019	-0.000134	0.000230
50991	NaN	9.810964	-0.662048	-0.840967	-0.199504	0.051049	0.054335	1.000000	0.000008	-0.000142	0.000216
50992	NaN	9.841284	-0.695193	-0.809122	-0.188738	0.006149	0.084443	1.000000	-0.000015	-0.000138	0.000223
50993	NaN	9.819565	-0.806604	-0.813423	-0.085969	-0.031384	0.073047	1.000000	-0.000031	-0.000140	0.000219
50994	NaN	9.805947	-0.807839	-0.836562	-0.079260	-0.011302	0.061654	1.000000	-0.000037	-0.000131	0.000206
50995	NaN	9.806675	-0.802099	-0.780360	-0.109165	-0.061649	0.056835	1.000000	-0.000002	-0.000145	0.000235
50996	NaN	9.795297	-0.770675	-0.829636	-0.123931	-0.005178	0.047064	1.000000	-0.000020	-0.000150	0.000255
50997	NaN	9.839507	-0.784138	-0.862576	-0.109482	0.017301	0.095013	1.000000	-0.000044	-0.000153	0.000254
50998	NaN	9.815055	-0.839636	-0.886814	-0.051846	0.018551	0.077898	1.000000	-0.000069	-0.000148	0.000253
50999	NaN	9.831624	-0.947089	-0.973861	0.073247	0.057222	0.111907	1.000000	-0.000043	-0.000138	0.000263
51000	NaN	9.796858	-0.889882	-0.945666	0.009057	0.053244	0.069705	1.000000	-0.000013	-0.000115	0.000241
51001	NaN	9.835540	-0.813574	-0.932329	-0.074498	0.067277	0.099876	1.000000	0.000010	-0.000120	0.000234
51002	NaN	9.781676	-0.829766	-0.931419	-0.058336	0.062005	0.047839	1.000000	-0.000005	-0.000122	0.000238
51003	NaN	9.771800	-0.788214	-0.921374	-0.102555	0.067837	0.033284	1.000000	-0.000008	-0.000139	0.000245
51004	NaN	9.795811	-0.809293	-0.942244	-0.083803	0.076873	0.060901	1.000000	-0.000013	-0.000136	0.000287
51005	NaN	9.757322	-0.795678	-0.947374	-0.095105	0.087967	0.021903	1.000000	-0.000019	-0.000158	0.000254
51006	NaN	9.754218	-0.833958	-0.924427	-0.073290	0.051014	0.020260	1.000000	0.000004	-0.000147	0.000257
51007	NaN	9.789677	-0.868052	-0.984074	-0.029395	0.091108	0.064080	1.000000	-0.000006	-0.000150	0.000275
51008	NaN	9.801504	-0.810021	-0.927209	-0.111038	0.058600	0.065043	1.000000	0.000017	-0.000140	0.000278
51009	NaN	9.796261	-0.792365	-0.923620	-0.132138	0.061891	0.057791	1.000000	0.000010	-0.000141	0.000280
51010	NaN	9.762789	-0.868291	-0.974130	-0.045049	0.080607	0.036494	1.000000	-0.000019	-0.000135	0.000264
51011	NaN	9.826047	-0.898476	-0.933694	-0.045407	0.028727	0.098284	1.000000	0.000011	-0.000115	0.000266
51012	NaN	9.794232	-0.808313	-0.931283	-0.131054	0.061267	0.057809	1.000000	0.000012	-0.000141	0.000287
51013	NaN	9.770918	-0.854405	-0.896292	-0.103641	0.012155	0.035830	1.000000	0.000037	-0.000154	0.000286
51014	NaN	9.795197	-0.786603	-0.963182	-0.150777	0.097144	0.059504	1.000000	-0.000017	-0.000164	0.000317
51015	NaN	9.764839	-0.843328	-0.896221	-0.125224	0.014809	0.028582	1.000000	0.000022	-0.000159	0.000314
51016	NaN	9.779681	-0.819291	-0.904945	-0.152627	0.030070	0.041658	1.000000	-0.000000	-0.000163	0.000320
51017	NaN	9.765812	-0.888856	-0.967477	-0.069823	0.062611	0.040655	1.000000	0.000025	-0.000134	0.000308
51018	NaN	9.815788	-0.850689	-0.908230	-0.139449	0.019130	0.080666	1.000000	0.000032	-0.000125	0.000307
51019	NaN	9.800052	-0.863617	-0.989785	-0.100148	0.090752	0.074084	1.000000	0.000043	-0.000114	0.000297
51020	NaN	9.821209	-0.918563	-0.984417	-0.059952	0.063316	0.100001	1.000000	0.000027	-0.000129	0.000260
51021	NaN	9.811778	-0.877764	-0.973949	-0.104616	0.070038	0.085504	1.000000	0.000042	-0.000099	0.000299
51022	NaN	9.773326	-0.930604	-1.017107	-0.040610	0.091780	0.056880	1.000000	0.000048	-0.000095	0.000266
51023	NaN	9.804157	-0.875836	-1.030298	-0.094699	0.123474	0.083064	1.000000	-0.000004	-0.000105	0.000303
51024	NaN	9.747398	-0.926045	-1.002755	-0.057267	0.081745	0.029308	1.000000	0.000022	-0.000103	0.000312
51025	NaN	9.741994	-0.975393	-1.037883	-0.003858	0.096312	0.032400	1.000000	-0.000001	-0.000122	0.000309
51026	NaN	9.754651	-0.918264	-0.980741	-0.085561	0.064004	0.033472	1.000000	0.000006	-0.000131	0.000330
51027	NaN	9.724778	-0.951584	-0.997841	-0.050148	0.068879	0.008985	1.000000	0.000009	-0.000121	0.000314
51028	NaN	9.742049	-0.960501	-1.071109	-0.023155	0.131795	0.034111	1.000000	-0.000015	-0.000121	0.000288
51029	NaN	9.714806	-0.915706	-0.989932	-0.094692	0.074820	-0.005477	1.000000	0.000014	-0.000123	0.000192
51030	NaN	9.905995	-1.039771	-0.988538	-0.010853	0.015598	0.196643	1.000000	0.000013	-0.000108	0.000194
51031	NaN	9.988224	-1.195679	-1.038154	0.137232	-0.001377	0.299345	1.000000	-0.000079	-0.000051	0.000234
51032	NaN	9.838213	-1.056093	-1.007616	0.013617	0.031449	0.133160	1.000000	-0.000023	-0.000021	0.000245
51033	NaN	9.814052	-0.977907	-0.950202	-0.078321	0.010895	0.095317	1.000000	0.000015	0.000002	0.000221
51034	NaN	9.835167	-1.031824	-0.942370	-0.038134	-0.016624	0.121169	1.000000	-0.000003	0.000016	0.000220
51035	NaN	9.865960	-1.042606	-0.992490	-0.016977	0.027141	0.157679	1.000000	-0.000048	0.000040	0.000243
51036	NaN	9.769805	-1.038218	-0.898890	-0.046181	-0.051047	0.052922	1.000000	-0.000030	0.000037	0.000221
51037	NaN	9.833943	-1.044984	-0.940647	-0.036223	-0.015175	0.121179	1.000000	-0.000048	0.000028	0.000210
51038	NaN	9.787075	-1.049522	-0.968707	-0.018390	0.012829	0.078026	1.000000	-0.000064	0.000041	0.000216
51039	NaN	9.795755	-1.033644	-0.941345	-0.046848	-0.004847	0.082217	1.000000	-0.000040	0.000044	0.000217
51040	NaN	9.802392	-1.027578	-0.972714	-0.044624	0.027928	0.091161	1.000000	-0.000055	0.000060	0.000199
51041	NaN	9.764710	-1.011570	-0.973571	-0.055698	0.040279	0.052197	1.000000	-0.000070	0.000068	0.000180
51042	NaN	9.764460	-1.014990	-0.972516	-0.055305	0.039760	0.052202	1.000000	-0.000059	0.000053	0.000183
51043	NaN	9.801612	-1.038077	-0.969420	-0.041283	0.029068	0.091172	1.000000	-0.000045	0.000071	0.000181
51044	NaN	9.805475	-1.064446	-0.974610	-0.017784	0.025320	0.098381	1.000000	-0.000053	0.000057	0.000150
51045	NaN	9.807331	-1.057427	-0.914641	-0.047148	-0.024340	0.093656	1.000000	-0.000043	0.000058	0.000155
51046	NaN	9.749567	-1.047438	-0.903681	-0.054282	-0.026414	0.034351	1.000000	-0.000037	0.000052	0.000145
51047	NaN	9.758431	-1.030339	-0.876047	-0.082920	-0.043670	0.038569	1.000000	-0.000051	0.000057	0.000157
51048	NaN	9.802621	-1.042833	-0.905266	-0.068530	-0.022034	0.086464	1.000000	-0.000070	0.000064	0.000147
51049	NaN	9.768086	-1.115656	-0.952186	0.019212	-0.002812	0.064887	1.000000	-0.000079	0.000037	0.000163
51050	NaN	9.799088	-1.124955	-1.001993	0.040070	0.039417	0.101367	1.000000	-0.000053	0.000057	0.000150
51051	NaN	9.782736	-1.157582	-0.995506	0.068255	0.024054	0.088207	1.000000	-0.000073	0.000049	0.000131
51052	NaN	9.787607	-1.116872	-0.961518	0.015994	0.009464	0.085233	1.000000	-0.000042	0.000061	0.000131
51053	NaN	9.799591	-1.065903	-0.959606	-0.034199	0.029657	0.091197	1.000000	-0.000042	0.000063	0.000107
51054	NaN	9.763136	-1.104805	-0.940733	-0.001622	0.000474	0.057692	1.000000	-0.000049	0.000085	0.000120
51055	NaN	9.749893	-1.103682	-0.959763	0.005910	0.021792	0.046277	1.000000	-0.000031	0.000056	0.000111
51056	NaN	9.766896	-1.132289	-0.944726	0.022940	-0.002579	0.064879	1.000000	-0.000009	0.000060	0.000106
51057	NaN	9.820289	-1.124049	-0.947118	0.008685	0.002649	0.116991	1.000000	-0.000012	0.000060	0.000098
51058	NaN	9.758675	-1.089617	-0.929578	-0.021596	0.003881	0.050509	1.000000	0.000000	0.000071	0.000088
51059	NaN	9.825252	-1.084393	-0.911311	-0.043029	-0.010824	0.114045	1.000000	-0.000003	0.000079	0.000082
51060	NaN	9.791930	-1.089111	-0.918313	-0.031628	-0.003458	0.082278	1.000000	-0.000010	0.000066	0.000050
51061	NaN	9.805030	-1.093551	-0.896648	-0.036332	-0.023380	0.093704	1.000000	-0.000006	0.000072	0.000066
51062	NaN	9.754613	-1.071781	-0.917537	-0.041544	0.007867	0.043340	1.000000	0.000003	0.000081	0.000072
51063	NaN	9.765713	-1.086222	-0.954836	-0.015007	0.038373	0.059448	1.000000	0.000018	0.000052	0.000057
51064	NaN	9.774767	-1.067658	-0.927048	-0.044199	0.020606	0.063699	1.000000	0.000039	0.000053	0.000075
51065	NaN	9.728327	-1.069211	-0.954606	-0.025893	0.049957	0.020504	1.000000	0.000043	0.000062	0.000067
51066	NaN	9.757587	-1.044142	-0.938652	-0.059580	0.044922	0.045113	1.000000	0.000059	0.000046	0.000085
51067	NaN	9.746355	-1.032717	-0.899194	-0.083257	0.015783	0.029025	1.000000	0.000053	0.000029	0.000085
51068	NaN	9.767313	-1.127568	-1.015054	0.043226	0.085775	0.071286	1.000000	0.000038	0.000039	0.000122
51069	NaN	9.772310	-1.086358	-0.981093	-0.007431	0.072253	0.068379	1.000000	0.000070	0.000041	0.000065
51070	NaN	9.780530	-1.011545	-0.973059	-0.080788	0.094513	0.067261	1.000000	0.000084	0.000033	0.000084
51071	NaN	9.768173	-1.066324	-0.972846	-0.029031	0.075211	0.061227	1.000000	0.000084	0.000051	0.000062
51072	NaN	9.805390	-1.087694	-0.969652	-0.016502	0.063521	0.100167	1.000000	0.000049	0.000045	0.000079
51073	NaN	9.796651	-0.986230	-0.975305	-0.105787	0.111213	0.080476	1.000000	0.000050	0.000071	0.000066
51074	NaN	9.751816	-1.100478	-0.963466	0.000377	0.059102	0.048029	1.000000	0.000069	0.000068	0.000044
51075	NaN	9.797447	-1.044970	-0.952943	-0.060478	0.071718	0.085860	1.000000	0.000032	0.000054	0.000053
51076	NaN	9.756222	-1.003081	-0.947413	-0.095284	0.085798	0.039783	1.000000	0.000057	0.000072	0.000064
51077	NaN	9.740669	-1.090615	-0.921014	-0.022607	0.030321	0.031951	1.000000	0.000086	0.000039	0.000036
51078	NaN	9.784342	-1.045217	-0.969888	-0.052056	0.091958	0.074443	1.000000	0.000065	0.000032	0.000073
51079	NaN	9.778253	-0.990325	-0.897535	-0.128530	0.048846	0.055526	1.000000	0.000072	0.000033	0.000071
51080	NaN	9.786056	-1.038534	-0.909341	-0.081918	0.041581	0.069818	1.000000	0.000061	0.000038	0.000091
51081	NaN	9.777512	-1.116746	-0.915745	-0.007096	0.019917	0.070885	1.000000	0.000061	0.000015	0.000081
51082	NaN	9.772746	-1.038686	-0.928544	-0.073833	0.062916	0.058393	1.000000	0.000075	0.000025	0.000078
51083	NaN	9.752409	-1.046743	-0.915948	-0.068033	0.051085	0.038042	1.000000	0.000091	0.000030	0.000050
51084	NaN	9.798668	-1.048095	-0.886478	-0.085157	0.022249	0.081275	1.000000	0.000076	0.000017	0.000077
51085	NaN	9.797279	-1.116383	-0.925201	-0.007654	0.032668	0.091244	1.000000	0.000104	0.000018	0.000093
51086	NaN	9.805602	-1.041705	-0.917654	-0.080923	0.055191	0.090214	1.000000	0.000081	0.000018	0.000067
51087	NaN	9.761022	-1.033288	-0.887179	-0.094109	0.033644	0.042379	1.000000	0.000062	0.000007	0.000080
51088	NaN	9.763540	-1.124515	-0.932464	0.005281	0.039974	0.059451	1.000000	0.000073	0.000002	0.000060
51089	NaN	9.758242	-1.168884	-0.965074	0.059104	0.054574	0.062254	1.000000	0.000083	0.000013	0.000042
51090	NaN	9.779097	-1.040365	-0.956939	-0.064716	0.096801	0.067357	1.000000	0.000091	0.000022	0.000049
51091	NaN	9.742419	-1.077957	-0.938916	-0.031215	0.068345	0.033766	1.000000	0.000107	0.000008	0.000043
51092	NaN	9.783394	-1.122740	-0.942827	0.004433	0.053171	0.079806	1.000000	0.000062	-0.000012	0.000102
51093	NaN	9.779259	-1.101506	-0.936475	-0.018014	0.057300	0.072685	1.000000	0.000066	0.000006	0.000094
51094	NaN	9.730707	-1.070231	-0.899852	-0.055061	0.038252	0.017739	1.000000	0.000021	0.000015	0.000108
51095	NaN	9.803019	-1.122186	-0.954205	0.002388	0.066918	0.100158	1.000000	-0.000006	-0.000002	0.000090
51096	NaN	9.784579	-1.163840	-1.007146	0.062228	0.100548	0.091498	1.000000	-0.000004	0.000038	0.000086
51097	NaN	9.804636	-1.115457	-0.894246	-0.028555	0.016153	0.095579	1.000000	0.000011	0.000033	0.000081
51098	NaN	9.783724	-1.066962	-0.901485	-0.067705	0.043164	0.069918	1.000000	0.000012	0.000028	0.000056
51099	NaN	9.772515	-1.054751	-0.862368	-0.091613	0.013692	0.053905	1.000000	0.000022	0.000028	0.000061
51100	NaN	9.796598	-1.072602	-0.880019	-0.072430	0.022484	0.081376	1.000000	0.000013	0.000020	0.000055
51101	NaN	9.755940	-1.087112	-0.855692	-0.063006	-0.002041	0.040658	1.000000	0.000011	0.000033	0.000081
51102	NaN	9.770215	-1.025568	-0.795589	-0.145124	-0.033050	0.042246	1.000000	0.000006	0.000023	0.000089
51103	NaN	9.779300	-1.050750	-0.892781	-0.086909	0.047529	0.062840	1.000000	0.000016	0.000001	0.000084
51104	NaN	9.751578	-1.068920	-0.848544	-0.084476	0.001027	0.033569	1.000000	-0.000007	0.000005	0.000091
51105	NaN	9.765936	-1.050683	-0.913072	-0.079091	0.067940	0.051402	1.000000	-0.000013	-0.000001	0.000068
51106	NaN	9.799113	-1.048754	-0.904473	-0.089621	0.059716	0.083219	1.000000	-0.000014	0.000015	0.000070
51107	NaN	9.793244	-1.036868	-0.956833	-0.080102	0.113660	0.080690	1.000000	0.000001	0.000017	0.000066
51108	NaN	9.815312	-1.021524	-0.909568	-0.116057	0.075684	0.096499	1.000000	-0.000006	0.000008	0.000067
51109	NaN	9.778022	-1.002669	-0.911797	-0.127344	0.087049	0.057604	1.000000	-0.000039	-0.000003	0.000059
51110	NaN	9.781771	-1.027024	-0.918008	-0.103823	0.083056	0.064705	1.000000	-0.000026	0.000015	0.000057
51111	NaN	9.761816	-1.091035	-0.886230	-0.054529	0.030268	0.049611	1.000000	-0.000002	0.000002	0.000049
51112	NaN	9.768998	-1.082017	-0.918453	-0.051742	0.063075	0.058532	1.000000	-0.000037	0.000007	0.000043
51113	NaN	9.789227	-1.076131	-0.930225	-0.054363	0.075693	0.078908	1.000000	-0.000017	0.000011	0.000030
51114	NaN	9.809483	-1.069989	-0.942026	-0.058218	0.087989	0.099281	1.000000	-0.000028	0.000003	0.000016
51115	NaN	9.798785	-1.113214	-0.883461	-0.038914	0.018037	0.088529	1.000000	-0.000042	0.000034	0.000008
51116	NaN	9.794997	-1.090014	-0.876443	-0.061575	0.021131	0.081453	1.000000	-0.000036	0.000051	0.000008
51117	NaN	9.789756	-1.133188	-0.908553	-0.007687	0.035201	0.084161	1.000000	-0.000054	0.000042	-0.000004
51118	NaN	9.771510	-1.172767	-0.961371	0.052284	0.068603	0.075415	1.000000	-0.000047	0.000020	-0.000017
51119	NaN	9.760088	-1.102414	-0.941893	-0.015432	0.079762	0.054187	1.000000	-0.000094	0.000064	-0.000023
51120	NaN	9.765925	-1.115127	-0.888653	-0.024119	0.025536	0.056724	1.000000	-0.000079	0.000017	-0.000016
51121	NaN	9.745822	-1.164494	-1.000731	0.068978	0.109610	0.052493	1.000000	-0.000096	0.000023	-0.000019
51122	NaN	9.770065	-1.180596	-1.018703	0.088254	0.118324	0.079933	1.000000	-0.000113	0.000021	-0.000022
51123	NaN	9.747461	-1.096810	-0.960987	-0.005326	0.099755	0.042743	1.000000	-0.000082	0.000033	-0.000021
51124	NaN	9.773748	-1.145827	-1.044111	0.069306	0.155010	0.081776	1.000000	-0.000114	0.000017	-0.000054
51125	NaN	9.775742	-1.134815	-0.984986	0.037923	0.104853	0.077242	1.000000	-0.000116	0.000030	-0.000028
51126	NaN	9.758982	-1.107407	-0.998926	0.021975	0.128496	0.058733	1.000000	-0.000090	0.000009	-0.000030
51127	NaN	9.755242	-1.083103	-0.992575	-0.000440	0.132363	0.051670	1.000000	-0.000106	0.000018	-0.000056
51128	NaN	9.755832	-1.138367	-0.972774	0.043684	0.091402	0.056870	1.000000	-0.000105	0.000025	-0.000048
51129	NaN	9.756000	-1.136998	-0.972686	0.045040	0.091376	0.056864	1.000000	-0.000117	0.000010	-0.000070
51130	NaN	9.756653	-1.191696	-0.953165	0.089149	0.050396	0.062051	1.000000	-0.000091	0.000007	-0.000094
51131	NaN	9.826959	-1.149878	-0.961671	0.047362	0.071663	0.127573	1.000000	-0.000092	0.000049	-0.000105
51132	NaN	9.818191	-1.167267	-0.987784	0.077614	0.088050	0.123173	1.000000	-0.000097	0.000035	-0.000129
51133	NaN	9.831655	-1.167493	-0.966502	0.072399	0.067350	0.134615	1.000000	-0.000098	0.000079	-0.000172
51134	NaN	9.782553	-1.196853	-0.968153	0.111059	0.058174	0.089454	1.000000	-0.000112	0.000088	-0.000191
51135	NaN	9.827727	-1.202586	-0.996572	0.127350	0.079729	0.137238	1.000000	-0.000130	0.000105	-0.000217
51136	NaN	9.806472	-1.214249	-1.041566	0.164364	0.116563	0.121373	1.000000	-0.000111	0.000143	-0.000250
51137	NaN	9.807971	-1.265423	-1.019527	0.209123	0.075647	0.126506	1.000000	-0.000118	0.000144	-0.000272
51138	NaN	9.799999	-1.279295	-1.043510	0.239400	0.091990	0.122086	1.000000	-0.000132	0.000171	-0.000313
51139	NaN	9.828214	-1.213244	-0.959930	0.150855	0.041262	0.135316	1.000000	-0.000090	0.000193	-0.000323
51140	NaN	9.783137	-1.206625	-0.985367	0.168977	0.068979	0.092026	1.000000	-0.000124	0.000198	-0.000328
51141	NaN	9.802233	-1.160289	-0.928220	0.110741	0.035010	0.100846	1.000000	-0.000115	0.000198	-0.000323
51142	NaN	9.781474	-1.170141	-0.971687	0.147791	0.071806	0.084971	1.000000	-0.000135	0.000213	-0.000332
51143	NaN	9.750912	-1.157453	-0.917760	0.127290	0.029209	0.048611	1.000000	-0.000152	0.000190	-0.000289
51144	NaN	9.726769	-1.078799	-0.915824	0.065237	0.060327	0.016080	1.000000	-0.000135	0.000173	-0.000264
51145	NaN	9.710595	-1.047095	-0.926989	0.049959	0.084162	-0.002397	1.000000	-0.000110	0.000149	-0.000242
51146	NaN	9.720184	-1.022713	-0.897616	0.020538	0.066945	0.002032	1.000000	-0.000146	0.000141	-0.000201
51147	NaN	9.716667	-0.995712	-0.889310	-0.001430	0.070479	-0.004988	1.000000	-0.000121	0.000084	-0.000166
51148	NaN	9.695157	-0.886272	-0.914783	-0.083911	0.138623	-0.035566	1.000000	-0.000121	0.000096	-0.000132
51149	NaN	9.704317	-0.863969	-0.886781	-0.112961	0.121608	-0.031121	1.000000	-0.000114	0.000045	-0.000100
51150	NaN	9.716006	-0.875345	-0.924601	-0.086783	0.150666	-0.015154	1.000000	-0.000092	0.000050	-0.000049
51151	NaN	9.712590	-0.784942	-0.878374	-0.185854	0.144963	-0.031761	1.000000	-0.000080	-0.000022	-0.000036
51152	NaN	9.696091	-0.692026	-0.853414	-0.277757	0.159442	-0.059799	1.000000	-0.000050	-0.000042	0.000033
51153	NaN	9.697347	-0.683595	-0.795810	-0.309536	0.108858	-0.064278	1.000000	-0.000041	-0.000096	0.000097
51154	NaN	9.750512	-0.675712	-0.801146	-0.324139	0.113484	-0.012026	1.000000	-0.000051	-0.000136	0.000160
51155	NaN	9.767070	-0.705544	-0.790166	-0.306830	0.089008	0.006464	1.000000	-0.000025	-0.000168	0.000181
51156	NaN	9.808634	-0.686003	-0.758029	-0.347185	0.064141	0.042761	1.000000	-0.000057	-0.000174	0.000205
51157	NaN	9.834019	-0.696294	-0.720784	-0.359606	0.022292	0.065696	1.000000	-0.000005	-0.000187	0.000157
51158	NaN	9.883017	-0.665981	-0.720961	-0.397268	0.030665	0.110950	1.000000	-0.000046	-0.000168	0.000163
51159	NaN	9.871202	-0.656285	-0.685399	-0.422344	0.000284	0.095023	1.000000	-0.000022	-0.000135	0.000176
51160	NaN	9.869944	-0.725771	-0.727811	-0.345842	0.009006	0.104598	1.000000	-0.000066	-0.000131	0.000164
51161	NaN	9.846832	-0.703040	-0.653135	-0.396145	-0.050162	0.072732	1.000000	-0.000033	-0.000120	0.000172
51162	NaN	9.818810	-0.709157	-0.755553	-0.349476	0.040234	0.054382	1.000000	-0.000061	-0.000140	0.000178
51163	NaN	9.822325	-0.736099	-0.764904	-0.325214	0.035823	0.061417	1.000000	-0.000075	-0.000145	0.000213
51164	NaN	9.808778	-0.736627	-0.788650	-0.317955	0.055826	0.049994	1.000000	-0.000081	-0.000185	0.000203
51165	NaN	9.782870	-0.790620	-0.813656	-0.259976	0.055235	0.032160	1.000000	-0.000080	-0.000158	0.000246
51166	NaN	9.795169	-0.798795	-0.797081	-0.266351	0.034312	0.043612	1.000000	-0.000096	-0.000216	0.000251
51167	NaN	9.800561	-0.859431	-0.873454	-0.187331	0.075832	0.062114	1.000000	-0.000105	-0.000217	0.000246
51168	NaN	9.801910	-0.896732	-0.943248	-0.131161	0.121485	0.073633	1.000000	-0.000116	-0.000202	0.000243
51169	NaN	9.837132	-0.987045	-0.984999	-0.041636	0.118850	0.121988	1.000000	-0.000151	-0.000179	0.000215
51170	NaN	9.797904	-1.036864	-1.030559	0.022702	0.138947	0.092677	1.000000	-0.000136	-0.000166	0.000188
51171	NaN	9.844111	-1.097062	-0.985860	0.049877	0.068994	0.140942	1.000000	-0.000087	-0.000150	0.000168
51172	NaN	9.821327	-1.116266	-1.035811	0.087073	0.105638	0.125052	1.000000	-0.000095	-0.000110	0.000159
51173	NaN	9.826039	-1.076051	-1.004725	0.035348	0.091954	0.122538	1.000000	-0.000039	-0.000108	0.000127
51174	NaN	9.768623	-1.121796	-0.977918	0.071047	0.049384	0.068267	1.000000	-0.000064	-0.000102	0.000127
51175	NaN	9.732847	-1.136917	-1.047722	0.116067	0.106150	0.040935	1.000000	-0.000081	-0.000115	0.000146
51176	NaN	9.752548	-1.132916	-1.061909	0.112470	0.118443	0.061352	1.000000	-0.000050	-0.000111	0.000146
51177	NaN	9.740888	-1.122759	-1.025581	0.087999	0.088117	0.045395	1.000000	-0.000087	-0.000116	0.000156
51178	NaN	9.764393	-1.142142	-1.046620	0.107496	0.096566	0.072776	1.000000	-0.000068	-0.000138	0.000156
51179	NaN	9.757905	-1.131086	-1.102012	0.118514	0.149326	0.070336	1.000000	-0.000126	-0.000136	0.000149
51180	NaN	9.774205	-1.160384	-1.090928	0.135188	0.124546	0.088722	1.000000	-0.000054	-0.000118	0.000130
51181	NaN	9.761044	-1.215888	-1.094494	0.187118	0.103126	0.082191	1.000000	-0.000079	-0.000105	0.000131
51182	NaN	9.795469	-1.149059	-1.048221	0.100576	0.086111	0.104610	1.000000	-0.000074	-0.000095	0.000123
51183	NaN	9.731740	-1.123748	-1.092583	0.102295	0.137327	0.042971	1.000000	-0.000052	-0.000081	0.000094
51184	NaN	9.781560	-1.149261	-1.072130	0.108082	0.104832	0.093195	1.000000	-0.000057	-0.000083	0.000103
51185	NaN	9.738107	-1.117315	-1.128072	0.106755	0.168781	0.051986	1.000000	-0.000054	-0.000068	0.000120
51186	NaN	9.741072	-1.085981	-1.155205	0.086990	0.205390	0.054054	1.000000	-0.000024	-0.000080	0.000110
51187	NaN	9.742739	-1.078968	-1.097787	0.055540	0.154390	0.049531	1.000000	-0.000017	-0.000082	0.000132
51188	NaN	9.755002	-1.028285	-1.098071	0.005832	0.174437	0.056088	1.000000	-0.000022	-0.000072	0.000118
51189	NaN	9.778608	-1.047402	-1.117922	0.026671	0.181976	0.083481	1.000000	-0.000014	-0.000067	0.000149
51190	NaN	9.759706	-0.990724	-1.067306	-0.045015	0.159991	0.053665	1.000000	-0.000029	-0.000059	0.000130
51191	NaN	9.776164	-1.019990	-1.054907	-0.028309	0.135081	0.072025	1.000000	-0.000013	-0.000072	0.000124
51192	NaN	9.776093	-1.079142	-1.037239	0.015406	0.093600	0.076874	1.000000	-0.000043	-0.000061	0.000134
51193	NaN	9.803449	-1.121309	-1.063544	0.058715	0.096958	0.111184	1.000000	-0.000008	-0.000063	0.000115
51194	NaN	9.790298	-1.021522	-0.979237	-0.066037	0.062366	0.078930	1.000000	-0.000015	-0.000041	0.000128
51195	NaN	9.797148	-1.013590	-1.012156	-0.062127	0.093652	0.087984	1.000000	-0.000020	-0.000032	0.000114
51196	NaN	9.784070	-1.068642	-1.014014	-0.011533	0.072605	0.081394	1.000000	-0.000034	-0.000023	0.000095
51197	NaN	9.774445	-1.089970	-1.041441	0.019328	0.087628	0.076921	1.000000	-0.000019	-0.000029	0.000090
51198	NaN	9.779864	-1.049020	-1.008347	-0.033273	0.074528	0.074490	1.000000	0.000028	-0.000008	0.000096
51199	NaN	9.781315	-0.928188	-0.987805	-0.152355	0.105496	0.060360	1.000000	-0.000001	-0.000043	0.000092
51200	NaN	9.779087	-0.996138	-1.028523	-0.075758	0.113710	0.069722	1.000000	0.000002	-0.000028	0.000109
51201	NaN	9.784709	-1.012470	-0.976631	-0.085169	0.059219	0.072082	1.000000	-0.000022	-0.000027	0.000139
51202	NaN	9.790051	-0.972567	-0.943875	-0.137772	0.046123	0.069659	1.000000	0.000040	-0.000045	0.000152
51203	NaN	9.772377	-1.046909	-1.063586	-0.020463	0.123761	0.072192	1.000000	0.000034	-0.000002	0.000119
51204	NaN	9.798091	-0.999972	-1.042329	-0.077024	0.123408	0.090232	1.000000	0.000038	-0.000034	0.000122
51205	NaN	9.808688	-1.015303	-1.081225	-0.050009	0.151187	0.106228	1.000000	0.000125	0.000003	0.000101
51206	NaN	9.799109	-1.036763	-1.107698	-0.019565	0.167219	0.101750	1.000000	0.000067	0.000016	0.000071
51207	NaN	9.823784	-1.013106	-1.000850	-0.088102	0.079332	0.113075	1.000000	0.000112	0.000037	0.000069
51208	NaN	9.786106	-1.092454	-1.106984	0.032315	0.144884	0.095122	1.000000	0.000102	0.000066	0.000019
51209	NaN	9.781071	-1.037358	-1.033507	-0.045535	0.102101	0.076757	1.000000	0.000068	0.000052	0.000035
51210	NaN	9.781752	-0.939664	-0.926690	-0.177289	0.047304	0.055986	1.000000	0.000101	0.000063	0.000043
51211	NaN	9.777461	-1.016123	-1.024423	-0.066587	0.104268	0.069892	1.000000	0.000080	0.000044	0.000047
51212	NaN	9.777564	-1.073965	-1.004380	-0.022953	0.062665	0.074602	1.000000	-0.000019	0.000046	0.000067
51213	NaN	9.777376	-1.018779	-1.022591	-0.064249	0.102465	0.069927	1.000000	0.000035	0.000043	0.000083
51214	NaN	9.732460	-1.108452	-1.096879	0.053233	0.134690	0.042850	1.000000	-0.000012	0.000043	0.000032
51215	NaN	9.778938	-1.109804	-1.067284	0.035969	0.105026	0.086103	1.000000	-0.000037	0.000056	0.000033
51216	NaN	9.775294	-1.030249	-1.078445	-0.029796	0.149662	0.074554	1.000000	-0.000024	0.000092	0.000009
51217	NaN	9.732831	-1.109324	-1.092702	0.054732	0.131429	0.042886	1.000000	-0.000039	0.000109	-0.000008
51218	NaN	9.794052	-1.146170	-1.107314	0.086622	0.127913	0.108977	1.000000	-0.000036	0.000100	-0.000002
51219	NaN	9.763105	-1.139581	-1.054561	0.066299	0.084449	0.072526	1.000000	-0.000023	0.000126	-0.000003
51220	NaN	9.733579	-1.108898	-1.086456	0.057554	0.128872	0.042903	1.000000	-0.000029	0.000101	-0.000004
51221	NaN	9.706147	-1.068970	-1.059673	0.016020	0.122907	0.008694	1.000000	-0.000064	0.000095	0.000013
51222	NaN	9.702595	-1.046183	-1.051629	-0.006600	0.126422	0.001830	1.000000	-0.000044	0.000070	0.000045
51223	NaN	9.700573	-1.112989	-1.090536	0.070925	0.133691	0.011071	1.000000	-0.000065	0.000051	0.000048
51224	NaN	9.726637	-1.121306	-1.049115	0.057499	0.092278	0.033815	1.000000	-0.000075	0.000048	0.000067
51225	NaN	9.720831	-1.108505	-1.100772	0.068725	0.144704	0.031568	1.000000	-0.000053	0.000051	0.000061
51226	NaN	9.774501	-1.156856	-1.084348	0.097578	0.107929	0.088516	1.000000	-0.000060	0.000042	0.000062
51227	NaN	9.774484	-1.157912	-1.083375	0.098653	0.106784	0.088518	1.000000	-0.000072	0.000073	0.000061
51228	NaN	9.783875	-1.139323	-1.055368	0.069082	0.089866	0.093029	1.000000	-0.000033	0.000055	0.000048
51229	NaN	9.752605	-1.133900	-1.003733	0.047784	0.046398	0.056561	1.000000	-0.000029	0.000061	0.000064
51230	NaN	9.756238	-1.101582	-1.028165	0.028277	0.083097	0.058841	1.000000	-0.000054	0.000067	0.000063
51231	NaN	9.745258	-1.089866	-0.988361	0.003551	0.052379	0.042867	1.000000	-0.000057	0.000057	0.000079
51232	NaN	9.769167	-1.107989	-1.005809	0.023251	0.060507	0.070213	1.000000	-0.000064	0.000055	0.000081
51233	NaN	9.776408	-1.099218	-1.037040	0.027028	0.092533	0.079360	1.000000	-0.000039	0.000050	0.000081
51234	NaN	9.776343	-1.100648	-1.036140	0.027497	0.092026	0.079363	1.000000	-0.000041	0.000051	0.000074
51235	NaN	9.785669	-1.082380	-1.008386	-0.001690	0.074629	0.083885	1.000000	-0.000068	0.000049	0.000065
51236	NaN	9.763238	-1.099429	-1.054695	0.035808	0.110961	0.068019	1.000000	-0.000049	0.000058	0.000077
51237	NaN	9.761602	-1.068313	-0.988099	-0.018971	0.064014	0.056560	1.000000	-0.000073	0.000055	0.000075
51238	NaN	9.731856	-1.095494	-1.002218	0.015385	0.067192	0.031541	1.000000	-0.000024	0.000055	0.000053
51239	NaN	9.752109	-1.146570	-0.994111	0.055833	0.037335	0.056558	1.000000	-0.000057	0.000052	0.000046
51240	NaN	9.744852	-1.100971	-0.980017	0.010144	0.045011	0.042899	1.000000	-0.000008	0.000050	0.000048
51241	NaN	9.787566	-1.079562	-0.943639	-0.029346	0.019590	0.079284	1.000000	0.000022	0.000046	0.000039
51242	NaN	9.796931	-1.060958	-0.915780	-0.058946	0.002727	0.083810	1.000000	0.000024	0.000045	0.000047
51243	NaN	9.776548	-1.068584	-0.903039	-0.054386	-0.011152	0.063301	1.000000	0.000028	0.000044	0.000061
51244	NaN	9.793244	-1.039955	-0.907348	-0.080798	0.005125	0.076997	1.000000	0.000017	0.000044	0.000049
51245	NaN	9.787440	-1.083825	-0.940049	-0.026228	0.015699	0.079300	1.000000	0.000046	0.000030	0.000063
51246	NaN	9.787371	-1.085016	-0.939390	-0.025756	0.015183	0.079302	1.000000	0.000027	0.000029	0.000052
51247	NaN	9.811483	-1.045798	-0.975917	-0.048675	0.063742	0.102194	1.000000	0.000032	0.000049	0.000021
51248	NaN	9.813693	-0.980294	-0.934704	-0.124441	0.055149	0.093104	1.000000	0.000046	0.000059	0.000018
51249	NaN	9.795070	-1.019415	-0.987247	-0.063273	0.086890	0.084065	1.000000	0.000006	0.000066	-0.000010
51250	NaN	9.789494	-1.061874	-1.019313	-0.009633	0.098557	0.086351	1.000000	0.000018	0.000077	-0.000020
51251	NaN	9.778719	-1.048351	-0.978932	-0.034926	0.068270	0.070369	1.000000	0.000035	0.000089	-0.000040
51252	NaN	9.782756	-1.014028	-1.002773	-0.054292	0.105018	0.072764	1.000000	0.000024	0.000081	-0.000053
51253	NaN	9.786667	-1.036390	-1.007423	-0.030489	0.099867	0.079579	1.000000	0.000016	0.000111	-0.000040
51254	NaN	9.783188	-1.069210	-0.979601	-0.010180	0.062078	0.077189	1.000000	0.000010	0.000117	-0.000029
51255	NaN	9.761215	-1.084087	-1.024739	0.027440	0.097863	0.061335	1.000000	0.000018	0.000098	-0.000066
51256	NaN	9.767073	-1.096969	-0.970345	0.017643	0.043769	0.063465	1.000000	0.000008	0.000095	-0.000047
51257	NaN	9.761853	-1.082046	-1.020809	0.028774	0.096747	0.061342	1.000000	0.000005	0.000111	-0.000053
51258	NaN	9.745432	-1.110927	-1.013532	0.056085	0.079402	0.047606	1.000000	0.000002	0.000101	-0.000037
51259	NaN	9.745690	-1.110360	-1.011664	0.057012	0.078415	0.047609	1.000000	-0.000000	0.000091	-0.000021
51260	NaN	9.734873	-1.096604	-0.971233	0.031133	0.048952	0.031611	1.000000	-0.000026	0.000092	-0.000054
51261	NaN	9.746215	-1.108720	-1.008407	0.058208	0.076580	0.047617	1.000000	-0.000040	0.000071	-0.000029
51262	NaN	9.750061	-1.131428	-1.013662	0.081759	0.071880	0.054404	1.000000	-0.000061	0.000075	-0.000014
51263	NaN	9.729869	-1.137528	-1.000556	0.085952	0.058550	0.033866	1.000000	-0.000046	0.000077	-0.000018
51264	NaN	9.746781	-1.107337	-1.004450	0.059605	0.074869	0.047621	1.000000	-0.000060	0.000067	-0.000015
51265	NaN	9.748743	-1.097807	-0.944209	0.027302	0.023826	0.042940	1.000000	-0.000049	0.000067	-0.000003
51266	NaN	9.750711	-1.130213	-1.008756	0.084274	0.068481	0.054407	1.000000	-0.000061	0.000056	0.000007
51267	NaN	9.760062	-1.110816	-0.980849	0.054960	0.051017	0.058947	1.000000	-0.000058	0.000056	0.000015
51268	NaN	9.787866	-1.150708	-1.004802	0.097857	0.054741	0.093043	1.000000	-0.000080	0.000055	-0.000003
51269	NaN	9.778897	-1.113159	-1.049779	0.085740	0.111740	0.084188	1.000000	-0.000074	0.000057	-0.000013
51270	NaN	9.804886	-1.120256	-1.007920	0.072120	0.070303	0.106815	1.000000	-0.000075	0.000073	-0.000011
51271	NaN	9.747714	-1.105819	-0.997032	0.063861	0.068854	0.047638	1.000000	-0.000057	0.000069	-0.000032
51272	NaN	9.794131	-1.106087	-0.966744	0.046514	0.040063	0.090810	1.000000	-0.000048	0.000070	-0.000027
51273	NaN	9.801816	-1.095149	-0.997616	0.050259	0.071761	0.100057	1.000000	-0.000032	0.000064	-0.000032
51274	NaN	9.770443	-1.088230	-0.945950	0.028046	0.029705	0.063493	1.000000	-0.000021	0.000072	-0.000018
51275	NaN	9.763255	-1.041529	-0.931479	-0.016580	0.036940	0.049967	1.000000	-0.000009	0.000064	-0.000006
51276	NaN	9.767043	-1.064606	-0.937011	0.006970	0.032187	0.056731	1.000000	-0.000015	0.000047	-0.000006
51277	NaN	9.804289	-1.028192	-0.952745	-0.022927	0.061069	0.091086	1.000000	-0.000032	0.000068	0.000001
51278	NaN	9.761899	-1.050345	-0.987233	0.018453	0.084577	0.054685	1.000000	-0.000041	0.000060	-0.000006
51279	NaN	9.741637	-1.056658	-0.974377	0.022446	0.070556	0.034137	1.000000	-0.000011	0.000064	-0.000013
51280	NaN	9.791838	-1.023666	-0.969461	-0.014620	0.079076	0.079804	1.000000	-0.000016	0.000073	-0.000027
51281	NaN	9.764244	-0.983457	-0.943210	-0.056000	0.074042	0.045744	1.000000	-0.000017	0.000071	-0.000003
51282	NaN	9.764360	-0.983431	-0.942039	-0.055525	0.073513	0.045751	1.000000	-0.000021	0.000053	0.000004
51283	NaN	9.784845	-0.976993	-0.952823	-0.059074	0.084974	0.066325	1.000000	-0.000026	0.000044	0.000012
51284	NaN	9.788557	-1.000600	-0.958683	-0.035524	0.080194	0.073082	1.000000	-0.000011	0.000035	0.000031
51285	NaN	9.751604	-0.980687	-0.960120	-0.047682	0.090762	0.034487	1.000000	-0.000006	0.000037	0.000022
51286	NaN	9.809034	-0.994797	-0.968933	-0.038581	0.090773	0.093668	1.000000	-0.000035	0.000043	0.000007
51287	NaN	9.771957	-1.031278	-0.951251	-0.006794	0.060282	0.059287	1.000000	-0.000034	0.000058	0.000016
51288	NaN	9.838651	-1.025573	-0.932706	-0.027832	0.044083	0.123009	1.000000	-0.000045	0.000061	-0.000020
51289	NaN	9.788989	-1.000904	-0.953940	-0.031995	0.076085	0.073126	1.000000	-0.000031	0.000079	-0.000022
51290	NaN	9.794503	-1.014342	-0.900063	-0.042019	0.022016	0.075135	1.000000	-0.000042	0.000071	-0.000036
51291	NaN	9.805945	-1.026465	-0.937438	-0.013825	0.049493	0.091167	1.000000	-0.000050	0.000070	-0.000034
51292	NaN	9.756333	-1.001447	-0.958626	-0.018574	0.081530	0.041291	1.000000	-0.000085	0.000083	-0.000039
51293	NaN	9.782119	-1.064770	-0.897359	0.011108	-0.001827	0.068037	1.000000	-0.000056	0.000095	-0.000046
51294	NaN	9.774983	-1.017267	-0.882641	-0.034559	0.006232	0.054579	1.000000	-0.000063	0.000071	-0.000054
51295	NaN	9.790209	-1.052202	-0.926434	0.015635	0.029269	0.077333	1.000000	-0.000065	0.000095	-0.000051
51296	NaN	9.777667	-1.047143	-0.945090	0.023215	0.049184	0.066053	1.000000	-0.000055	0.000098	-0.000070
51297	NaN	9.798418	-1.039206	-0.954888	0.020734	0.060585	0.086639	1.000000	-0.000068	0.000103	-0.000057
51298	NaN	9.782017	-1.067626	-0.948108	0.047920	0.043114	0.072778	1.000000	-0.000054	0.000090	-0.000071
51299	NaN	9.765619	-1.095946	-0.941471	0.075275	0.024728	0.058914	1.000000	-0.000061	0.000089	-0.000069
51300	NaN	9.788014	-1.022304	-0.911246	-0.004205	0.029305	0.070622	1.000000	-0.000070	0.000085	-0.000043
51301	NaN	9.757198	-1.056513	-0.984259	0.064205	0.080756	0.050236	1.000000	-0.000036	0.000080	-0.000037
51302	NaN	9.744477	-1.108451	-0.984425	0.114450	0.058949	0.043073	1.000000	-0.000059	0.000081	-0.000062
51303	NaN	9.782060	-1.014104	-1.018280	0.042798	0.129635	0.073432	1.000000	-0.000016	0.000084	-0.000050
51304	NaN	9.767235	-0.977067	-0.971542	-0.006369	0.104710	0.050701	1.000000	-0.000022	0.000067	-0.000050
51305	NaN	9.756767	-1.061376	-1.037569	0.100805	0.127709	0.054992	1.000000	-0.000020	0.000075	-0.000042
51306	NaN	9.782649	-1.067969	-0.995341	0.087028	0.086266	0.077534	1.000000	-0.000014	0.000069	-0.000052
51307	NaN	9.776986	-0.954771	-0.940535	-0.034892	0.086567	0.055288	1.000000	-0.000012	0.000060	-0.000046
51308	NaN	9.747666	-0.980100	-0.954751	-0.000606	0.089520	0.030134	1.000000	0.000009	0.000068	-0.000026
51309	NaN	9.775626	-1.076122	-0.959712	0.085092	0.050782	0.068210	1.000000	-0.000029	0.000048	-0.000026
51310	NaN	9.794059	-0.979719	-0.923406	-0.017440	0.059822	0.073274	1.000000	-0.000043	0.000056	-0.000046
51311	NaN	9.744444	-0.954667	-0.945000	-0.022818	0.092223	0.023449	1.000000	-0.000019	0.000059	-0.000044
51312	NaN	9.772454	-1.050359	-0.950021	0.062795	0.053786	0.061512	1.000000	-0.000041	0.000056	-0.000038
51313	NaN	9.790729	-1.010775	-0.894794	0.003072	0.020404	0.070645	1.000000	-0.000040	0.000063	-0.000030
51314	NaN	9.778227	-0.949575	-0.932859	-0.031903	0.082095	0.055336	1.000000	-0.000047	0.000062	-0.000028
51315	NaN	9.773005	-1.048130	-0.946806	0.065255	0.051453	0.061508	1.000000	-0.000067	0.000054	-0.000047
51316	NaN	9.795034	-1.031513	-0.898275	0.028370	0.014390	0.077338	1.000000	-0.000059	0.000062	-0.000041
51317	NaN	9.778806	-0.946743	-0.929665	-0.029548	0.079954	0.055361	1.000000	-0.000039	0.000066	-0.000054
51318	NaN	9.777446	-1.068150	-0.950031	0.089845	0.044887	0.068196	1.000000	-0.000049	0.000073	-0.000058
51319	NaN	9.816186	-1.021543	-0.906004	0.026911	0.024092	0.097943	1.000000	-0.000047	0.000080	-0.000050
51320	NaN	9.762845	-0.973238	-0.920622	-0.000859	0.060638	0.041459	1.000000	-0.000030	0.000074	-0.000047
51321	NaN	9.800074	-0.992620	-0.917115	0.012088	0.047439	0.080009	1.000000	-0.000019	0.000059	-0.000044
51322	NaN	9.755571	-0.981824	-0.886331	-0.003367	0.026112	0.032110	1.000000	-0.000058	0.000054	-0.000042
51323	NaN	9.763429	-0.970534	-0.917285	0.000700	0.058604	0.041472	1.000000	-0.000042	0.000064	-0.000037
51324	NaN	9.780176	-0.996841	-0.902232	0.017080	0.033203	0.059403	1.000000	-0.000031	0.000071	-0.000023
51325	NaN	9.759891	-1.002738	-0.889666	0.021380	0.019452	0.038791	1.000000	-0.000042	0.000041	-0.000048
